date,time,group,subject,Participant ID,othersessionnumber,sessionnrandtype,sessionnumber,sessiontype,blocknum,trialnum,blockcode,trialcode,response,correct,latency,correctRT,TrimmedRT,stimulusnumber3,stimulusitem3,stimulusnumber5,stimulusitem5
21516,18:06:14,2,18,P8,912,session1different,session1,different,3,5,APblock1,related,53,1,479,479,479,15,sand,15,beach
21516,18:06:14,2,18,P8,912,session1different,session1,different,3,15,APblock1,related,44,0,426,,,7,front,7,back
21516,18:06:14,2,18,P8,912,session1different,session1,different,3,39,APblock1,related,53,1,567,567,567,6,left,6,right
21516,18:06:14,2,18,P8,912,session1different,session1,different,3,40,APblock1,related,53,1,567,567,567,4,subtract,4,add
21516,18:06:14,2,18,P8,912,session1different,session1,different,3,42,APblock1,related,53,1,536,536,536,14,hard,14,soft
21516,18:06:14,2,18,P8,912,session1different,session1,different,3,46,APblock1,related,53,1,455,455,455,30,eat,30,food
21516,18:06:14,2,18,P8,912,session1different,session1,different,3,47,APblock1,related,53,1,591,591,591,18,over,18,under
21516,18:06:14,2,18,P8,912,session1different,session1,different,3,55,APblock1,related,53,1,567,567,567,13,supper,13,dinner
21516,18:06:14,2,18,P8,912,session1different,session1,different,3,62,APblock1,related,53,1,555,555,555,29,win,29,lose
21516,18:06:14,2,18,P8,912,session1different,session1,different,3,68,APblock1,related,53,1,855,855,855,17,near,17,far
21516,18:06:14,2,18,P8,912,session1different,session1,different,3,77,APblock1,related,53,1,479,479,479,19,frame,19,picture
21516,18:06:14,2,18,P8,912,session1different,session1,different,3,88,APblock1,related,53,1,569,569,569,22,big,22,small
21516,18:06:14,2,18,P8,912,session1different,session1,different,3,100,APblock1,related,53,1,1035,1035,1035,21,awake,21,asleep
21516,18:06:14,2,18,P8,912,session1different,session1,different,3,108,APblock1,related,53,1,815,815,815,28,stand,28,sit
21516,18:06:14,2,18,P8,912,session1different,session1,different,3,119,APblock1,related,53,1,502,502,502,20,trash,20,garbage
21516,18:06:14,2,18,P8,912,session1different,session1,different,3,2,APblock1,unrelated,44,0,731,,,28,innocent,28,take
21516,18:06:14,2,18,P8,912,session1different,session1,different,3,50,APblock1,unrelated,53,1,601,601,601,16,best,16,fork
21516,18:06:14,2,18,P8,912,session1different,session1,different,3,66,APblock1,unrelated,53,1,1006,1006,1006,15,spoon,15,below
21516,18:06:14,2,18,P8,912,session1different,session1,different,3,78,APblock1,unrelated,53,1,565,565,565,13,pain,13,outside
21516,18:06:14,2,18,P8,912,session1different,session1,different,3,79,APblock1,unrelated,53,1,878,878,878,25,precise,25,spider
21516,18:06:14,2,18,P8,912,session1different,session1,different,3,80,APblock1,unrelated,53,1,637,637,637,7,above,7,mine
21516,18:06:14,2,18,P8,912,session1different,session1,different,3,82,APblock1,unrelated,53,1,609,609,609,18,same,18,remember
21516,18:06:14,2,18,P8,912,session1different,session1,different,3,84,APblock1,unrelated,44,0,875,,,2,aunt,2,south
21516,18:06:14,2,18,P8,912,session1different,session1,different,3,87,APblock1,unrelated,53,1,692,692,692,23,syrup,23,tear
21516,18:06:14,2,18,P8,912,session1different,session1,different,3,91,APblock1,unrelated,53,1,613,613,613,22,rip,22,dead
21516,18:06:14,2,18,P8,912,session1different,session1,different,3,93,APblock1,unrelated,53,1,2796,2796,,19,early,19,different
21516,18:06:14,2,18,P8,912,session1different,session1,different,3,103,APblock1,unrelated,53,1,1469,1469,1469,9,fast,9,leg
21516,18:06:14,2,18,P8,912,session1different,session1,different,3,106,APblock1,unrelated,53,1,856,856,856,24,web,24,pancakes
21516,18:06:14,2,18,P8,912,session1different,session1,different,3,107,APblock1,unrelated,53,1,730,730,730,14,north,14,hurt
21516,18:06:14,2,18,P8,912,session1different,session1,different,3,121,APblock1,unrelated,53,1,509,509,509,6,yours,6,negative
21516,3:12:38,3,21,P9,904,session1different,session1,different,3,19,APblock1,related,53,1,598,598,598,7,white,7,black
21516,3:12:38,3,21,P9,904,session1different,session1,different,3,32,APblock1,related,53,1,565,565,565,8,even,8,odd
21516,3:12:38,3,21,P9,904,session1different,session1,different,3,35,APblock1,related,53,1,881,881,881,10,washer,10,dryer
21516,3:12:38,3,21,P9,904,session1different,session1,different,3,41,APblock1,related,53,1,636,636,636,27,house,27,home
21516,3:12:38,3,21,P9,904,session1different,session1,different,3,43,APblock1,related,53,1,546,546,546,23,saucer,23,cup
21516,3:12:38,3,21,P9,904,session1different,session1,different,3,56,APblock1,related,53,1,695,695,695,19,dime,19,nickel
21516,3:12:38,3,21,P9,904,session1different,session1,different,3,59,APblock1,related,53,1,607,607,607,9,erupt,9,volcano
21516,3:12:38,3,21,P9,904,session1different,session1,different,3,60,APblock1,related,53,1,606,606,606,12,fright,12,scare
21516,3:12:38,3,21,P9,904,session1different,session1,different,3,62,APblock1,related,53,1,629,629,629,26,gum,26,chew
21516,3:12:38,3,21,P9,904,session1different,session1,different,3,73,APblock1,related,53,1,578,578,578,22,lend,22,borrow
21516,3:12:38,3,21,P9,904,session1different,session1,different,3,79,APblock1,related,53,1,492,492,492,20,clock,20,time
21516,3:12:38,3,21,P9,904,session1different,session1,different,3,82,APblock1,related,53,1,548,548,548,15,weak,15,strong
21516,3:12:38,3,21,P9,904,session1different,session1,different,3,93,APblock1,related,53,1,579,579,579,16,dusk,16,dawn
21516,3:12:38,3,21,P9,904,session1different,session1,different,3,98,APblock1,related,53,1,515,515,515,13,tall,13,short
21516,3:12:38,3,21,P9,904,session1different,session1,different,3,106,APblock1,related,53,1,598,598,598,6,shove,6,push
21516,3:12:38,3,21,P9,904,session1different,session1,different,3,8,APblock1,unrelated,53,1,620,620,620,29,desire,29,lead
21516,3:12:38,3,21,P9,904,session1different,session1,different,3,28,APblock1,unrelated,53,1,590,590,590,7,hot,7,bottom
21516,3:12:38,3,21,P9,904,session1different,session1,different,3,36,APblock1,unrelated,53,1,674,674,674,13,crocodile,13,lightning
21516,3:12:38,3,21,P9,904,session1different,session1,different,3,37,APblock1,unrelated,53,1,637,637,637,12,thunder,12,square
21516,3:12:38,3,21,P9,904,session1different,session1,different,3,39,APblock1,unrelated,53,1,559,559,559,10,silver,10,close
21516,3:12:38,3,21,P9,904,session1different,session1,different,3,57,APblock1,unrelated,53,1,697,697,697,28,follow,28,present
21516,3:12:38,3,21,P9,904,session1different,session1,different,3,61,APblock1,unrelated,53,1,700,700,700,6,top,6,woman
21516,3:12:38,3,21,P9,904,session1different,session1,different,3,65,APblock1,unrelated,53,1,616,616,616,5,man,5,less
21516,3:12:38,3,21,P9,904,session1different,session1,different,3,76,APblock1,unrelated,53,1,767,767,767,19,lime,19,tight
21516,3:12:38,3,21,P9,904,session1different,session1,different,3,87,APblock1,unrelated,53,1,636,636,636,4,more,4,after
21516,3:12:38,3,21,P9,904,session1different,session1,different,3,89,APblock1,unrelated,53,1,599,599,599,18,loose,18,feel
21516,3:12:38,3,21,P9,904,session1different,session1,different,3,96,APblock1,unrelated,53,1,586,586,586,20,good,20,lemon
21516,3:12:38,3,21,P9,904,session1different,session1,different,3,100,APblock1,unrelated,53,1,571,571,571,23,sting,23,major
21516,3:12:38,3,21,P9,904,session1different,session1,different,3,102,APblock1,unrelated,53,1,704,704,704,8,yell,8,full
21516,3:12:38,3,21,P9,904,session1different,session1,different,3,120,APblock1,unrelated,53,1,648,648,648,2,hammer,2,queen
21516,5:40:53,1,34,P15,392,session1different,session1,different,3,8,APblock1,related,53,1,592,592,592,12,ill,12,sick
21516,5:40:53,1,34,P15,392,session1different,session1,different,3,9,APblock1,related,53,1,557,557,557,28,give,28,take
21516,5:40:53,1,34,P15,392,session1different,session1,different,3,27,APblock1,related,53,1,514,514,514,23,rip,23,tear
21516,5:40:53,1,34,P15,392,session1different,session1,different,3,32,APblock1,related,53,1,510,510,510,16,spoon,16,fork
21516,5:40:53,1,34,P15,392,session1different,session1,different,3,40,APblock1,related,53,1,537,537,537,5,question,5,answer
21516,5:40:53,1,34,P15,392,session1different,session1,different,3,67,APblock1,related,53,1,547,547,547,22,alive,22,dead
21516,5:40:53,1,34,P15,392,session1different,session1,different,3,68,APblock1,related,53,1,481,481,481,6,positive,6,negative
21516,5:40:53,1,34,P15,392,session1different,session1,different,3,71,APblock1,related,53,1,473,473,473,11,niece,11,nephew
21516,5:40:53,1,34,P15,392,session1different,session1,different,3,77,APblock1,related,53,1,670,670,670,19,same,19,different
21516,5:40:53,1,34,P15,392,session1different,session1,different,3,78,APblock1,related,53,1,503,503,503,4,father,4,mother
21516,5:40:53,1,34,P15,392,session1different,session1,different,3,82,APblock1,related,53,1,588,588,588,9,arm,9,leg
21516,5:40:53,1,34,P15,392,session1different,session1,different,3,103,APblock1,related,53,1,543,543,543,2,north,2,south
21516,5:40:53,1,34,P15,392,session1different,session1,different,3,110,APblock1,related,53,1,7120,7120,,30,coffee,30,tea
21516,5:40:53,1,34,P15,392,session1different,session1,different,3,112,APblock1,related,53,1,582,582,582,1,east,1,west
21516,5:40:53,1,34,P15,392,session1different,session1,different,3,120,APblock1,related,53,1,505,505,505,25,web,25,spider
21516,5:40:53,1,34,P15,392,session1different,session1,different,3,2,APblock1,unrelated,44,0,361,,,24,nurse,24,bow
21516,5:40:53,1,34,P15,392,session1different,session1,different,3,4,APblock1,unrelated,53,1,982,982,982,5,left,5,sister
21516,5:40:53,1,34,P15,392,session1different,session1,different,3,10,APblock1,unrelated,53,1,489,489,489,18,frame,18,under
21516,5:40:53,1,34,P15,392,session1different,session1,different,3,59,APblock1,unrelated,44,0,424,,,19,trash,19,picture
21516,5:40:53,1,34,P15,392,session1different,session1,different,3,61,APblock1,unrelated,53,1,988,988,988,25,cautious,25,doctor
21516,5:40:53,1,34,P15,392,session1different,session1,different,3,63,APblock1,unrelated,53,1,628,628,628,23,arrow,23,exit
21516,5:40:53,1,34,P15,392,session1different,session1,different,3,66,APblock1,unrelated,53,1,649,649,649,9,thread,9,poor
21516,5:40:53,1,34,P15,392,session1different,session1,different,3,70,APblock1,unrelated,53,1,556,556,556,27,stand,27,test
21516,5:40:53,1,34,P15,392,session1different,session1,different,3,79,APblock1,unrelated,53,1,951,951,951,17,over,17,far
21516,5:40:53,1,34,P15,392,session1different,session1,different,3,86,APblock1,unrelated,53,1,676,676,676,26,exam,26,careful
21516,5:40:53,1,34,P15,392,session1different,session1,different,3,92,APblock1,unrelated,53,1,623,623,623,20,awake,20,garbage
21516,5:40:53,1,34,P15,392,session1different,session1,different,3,96,APblock1,unrelated,53,1,667,667,667,14,sand,14,soft
21516,5:40:53,1,34,P15,392,session1different,session1,different,3,106,APblock1,unrelated,53,1,1279,1279,1279,10,stupid,10,needle
21516,5:40:53,1,34,P15,392,session1different,session1,different,3,116,APblock1,unrelated,53,1,1181,1181,1181,4,brother,4,add
21516,5:40:53,1,34,P15,392,session1different,session1,different,3,119,APblock1,unrelated,53,1,1131,1131,1131,3,subtract,3,boy
21516,6:45:03,3,46,P21,395,session1different,session1,different,3,2,APblock1,related,53,1,484,484,484,21,run,21,walk
21516,6:45:03,3,46,P21,395,session1different,session1,different,3,10,APblock1,related,53,1,418,418,418,1,husband,1,wife
21516,6:45:03,3,46,P21,395,session1different,session1,different,3,12,APblock1,related,53,1,465,465,465,24,toad,24,frog
21516,6:45:03,3,46,P21,395,session1different,session1,different,3,15,APblock1,related,53,1,492,492,492,12,fright,12,scare
21516,6:45:03,3,46,P21,395,session1different,session1,different,3,28,APblock1,related,53,1,325,325,325,22,lend,22,borrow
21516,6:45:03,3,46,P21,395,session1different,session1,different,3,38,APblock1,related,53,1,494,494,494,16,dusk,16,dawn
21516,6:45:03,3,46,P21,395,session1different,session1,different,3,51,APblock1,related,53,1,1010,1010,,8,even,8,odd
21516,6:45:03,3,46,P21,395,session1different,session1,different,3,57,APblock1,related,53,1,550,550,550,30,stone,30,rock
21516,6:45:03,3,46,P21,395,session1different,session1,different,3,60,APblock1,related,53,1,1143,1143,,14,cob,14,corn
21516,6:45:03,3,46,P21,395,session1different,session1,different,3,73,APblock1,related,53,1,638,638,638,9,erupt,9,volcano
21516,6:45:03,3,46,P21,395,session1different,session1,different,3,79,APblock1,related,53,1,490,490,490,7,white,7,black
21516,6:45:03,3,46,P21,395,session1different,session1,different,3,96,APblock1,related,44,0,571,,,13,tall,13,short
21516,6:45:03,3,46,P21,395,session1different,session1,different,3,100,APblock1,related,53,1,506,506,506,3,low,3,high
21516,6:45:03,3,46,P21,395,session1different,session1,different,3,103,APblock1,related,53,1,538,538,538,19,dime,19,nickel
21516,6:45:03,3,46,P21,395,session1different,session1,different,3,115,APblock1,related,53,1,466,466,466,26,gum,26,chew
21516,6:45:03,3,46,P21,395,session1different,session1,different,3,11,APblock1,unrelated,44,0,447,,,25,mad,25,sweep
21516,6:45:03,3,46,P21,395,session1different,session1,different,3,24,APblock1,unrelated,53,1,375,375,375,28,follow,28,present
21516,6:45:03,3,46,P21,395,session1different,session1,different,3,31,APblock1,unrelated,53,1,503,503,503,3,before,3,nail
21516,6:45:03,3,46,P21,395,session1different,session1,different,3,36,APblock1,unrelated,53,1,676,676,676,10,silver,10,close
21516,6:45:03,3,46,P21,395,session1different,session1,different,3,37,APblock1,unrelated,53,1,510,510,510,21,dry,21,butter
21516,6:45:03,3,46,P21,395,session1different,session1,different,3,47,APblock1,unrelated,53,1,545,545,545,27,gift,27,disappear
21516,6:45:03,3,46,P21,395,session1different,session1,different,3,62,APblock1,unrelated,53,1,535,535,535,9,open,9,scream
21516,6:45:03,3,46,P21,395,session1different,session1,different,3,67,APblock1,unrelated,53,1,484,484,484,17,empty,17,today
21516,6:45:03,3,46,P21,395,session1different,session1,different,3,82,APblock1,unrelated,53,1,562,562,562,11,circle,11,gold
21516,6:45:03,3,46,P21,395,session1different,session1,different,3,84,APblock1,unrelated,53,1,430,430,430,12,thunder,12,square
21516,6:45:03,3,46,P21,395,session1different,session1,different,3,97,APblock1,unrelated,53,1,587,587,587,18,loose,18,feel
21516,6:45:03,3,46,P21,395,session1different,session1,different,3,99,APblock1,unrelated,53,1,483,483,483,13,crocodile,13,lightning
21516,6:45:03,3,46,P21,395,session1different,session1,different,3,105,APblock1,unrelated,53,1,638,638,638,2,hammer,2,queen
21516,6:45:03,3,46,P21,395,session1different,session1,different,3,116,APblock1,unrelated,53,1,430,430,430,24,broom,24,bee
21516,6:45:03,3,46,P21,395,session1different,session1,different,3,117,APblock1,unrelated,53,1,400,400,400,22,minor,22,wet
21516,6:51:57,4,50,P23,388,session1different,session1,different,3,10,APblock1,related,53,1,472,472,472,7,top,7,bottom
21516,6:51:57,4,50,P23,388,session1different,session1,different,3,13,APblock1,related,53,1,524,524,524,25,broom,25,sweep
21516,6:51:57,4,50,P23,388,session1different,session1,different,3,19,APblock1,related,53,1,401,401,401,8,empty,8,full
21516,6:51:57,4,50,P23,388,session1different,session1,different,3,21,APblock1,related,53,1,630,630,630,1,good,1,bad
21516,6:51:57,4,50,P23,388,session1different,session1,different,3,25,APblock1,related,53,1,538,538,538,10,open,10,close
21516,6:51:57,4,50,P23,388,session1different,session1,different,3,26,APblock1,related,53,1,518,518,518,26,mad,26,angry
21516,6:51:57,4,50,P23,388,session1different,session1,different,3,27,APblock1,related,53,1,476,476,476,12,circle,12,square
21516,6:51:57,4,50,P23,388,session1different,session1,different,3,39,APblock1,related,53,1,390,390,390,2,king,2,queen
21516,6:51:57,4,50,P23,388,session1different,session1,different,3,40,APblock1,related,53,1,409,409,409,3,hammer,3,nail
21516,6:51:57,4,50,P23,388,session1different,session1,different,3,52,APblock1,related,53,1,561,561,561,27,vanish,27,disappear
21516,6:51:57,4,50,P23,388,session1different,session1,different,3,82,APblock1,related,53,1,458,458,458,14,crocodile,14,alligator
21516,6:51:57,4,50,P23,388,session1different,session1,different,3,98,APblock1,related,53,1,535,535,535,11,silver,11,gold
21516,6:51:57,4,50,P23,388,session1different,session1,different,3,103,APblock1,related,53,1,471,471,471,23,minor,23,major
21516,6:51:57,4,50,P23,388,session1different,session1,different,3,104,APblock1,related,53,1,495,495,495,20,lime,20,lemon
21516,6:51:57,4,50,P23,388,session1different,session1,different,3,116,APblock1,related,53,1,561,561,561,18,touch,18,feel
21516,6:51:57,4,50,P23,388,session1different,session1,different,3,8,APblock1,unrelated,53,1,512,512,512,10,last,10,dryer
21516,6:51:57,4,50,P23,388,session1different,session1,different,3,12,APblock1,unrelated,53,1,453,453,453,7,even,7,black
21516,6:51:57,4,50,P23,388,session1different,session1,different,3,24,APblock1,unrelated,53,1,458,458,458,12,tall,12,scare
21516,6:51:57,4,50,P23,388,session1different,session1,different,3,34,APblock1,unrelated,53,1,474,474,474,3,salt,3,high
21516,6:51:57,4,50,P23,388,session1different,session1,different,3,56,APblock1,unrelated,53,1,547,547,547,25,gum,25,cab
21516,6:51:57,4,50,P23,388,session1different,session1,different,3,60,APblock1,unrelated,53,1,443,443,443,15,dusk,15,strong
21516,6:51:57,4,50,P23,388,session1different,session1,different,3,66,APblock1,unrelated,53,1,521,521,521,19,clock,19,nickel
21516,6:51:57,4,50,P23,388,session1different,session1,different,3,72,APblock1,unrelated,53,1,473,473,473,24,taxi,24,frog
21516,6:51:57,4,50,P23,388,session1different,session1,different,3,73,APblock1,unrelated,53,1,408,408,408,21,lend,21,walk
21516,6:51:57,4,50,P23,388,session1different,session1,different,3,75,APblock1,unrelated,53,1,465,465,465,4,sad,4,pepper
21516,6:51:57,4,50,P23,388,session1different,session1,different,3,76,APblock1,unrelated,53,1,592,592,592,23,run,23,cup
21516,6:51:57,4,50,P23,388,session1different,session1,different,3,89,APblock1,unrelated,53,1,405,405,405,6,white,6,push
21516,6:51:57,4,50,P23,388,session1different,session1,different,3,90,APblock1,unrelated,53,1,526,526,526,2,low,2,night
21516,6:51:57,4,50,P23,388,session1different,session1,different,3,101,APblock1,unrelated,53,1,548,548,548,13,cob,13,short
21516,6:51:57,4,50,P23,388,session1different,session1,different,3,117,APblock1,unrelated,53,1,445,445,445,20,son,20,time
21516,5:09:07,4,66,P27,496,session1different,session1,different,3,14,APblock1,related,53,1,680,680,680,21,margarine,21,butter
21516,5:09:07,4,66,P27,496,session1different,session1,different,3,16,APblock1,related,53,1,1453,1453,,15,mustard,15,ketchup
21516,5:09:07,4,66,P27,496,session1different,session1,different,3,17,APblock1,related,53,1,1084,1084,1084,28,gift,28,present
21516,5:09:07,4,66,P27,496,session1different,session1,different,3,24,APblock1,related,53,1,969,969,969,2,king,2,queen
21516,5:09:07,4,66,P27,496,session1different,session1,different,3,36,APblock1,related,53,1,564,564,564,19,loose,19,tight
21516,5:09:07,4,66,P27,496,session1different,session1,different,3,46,APblock1,related,53,1,644,644,644,8,empty,8,full
21516,5:09:07,4,66,P27,496,session1different,session1,different,3,47,APblock1,related,53,1,500,500,500,4,before,4,after
21516,5:09:07,4,66,P27,496,session1different,session1,different,3,49,APblock1,related,53,1,509,509,509,10,open,10,close
21516,5:09:07,4,66,P27,496,session1different,session1,different,3,70,APblock1,related,53,1,593,593,593,9,yell,9,scream
21516,5:09:07,4,66,P27,496,session1different,session1,different,3,80,APblock1,related,53,1,823,823,823,11,silver,11,gold
21516,5:09:07,4,66,P27,496,session1different,session1,different,3,82,APblock1,related,53,1,559,559,559,25,broom,25,sweep
21516,5:09:07,4,66,P27,496,session1different,session1,different,3,88,APblock1,related,53,1,563,563,563,5,more,5,less
21516,5:09:07,4,66,P27,496,session1different,session1,different,3,109,APblock1,related,53,1,698,698,698,18,touch,18,feel
21516,5:09:07,4,66,P27,496,session1different,session1,different,3,113,APblock1,related,53,1,451,451,451,6,man,6,woman
21516,5:09:07,4,66,P27,496,session1different,session1,different,3,118,APblock1,related,53,1,439,439,439,7,top,7,bottom
21516,5:09:07,4,66,P27,496,session1different,session1,different,3,35,APblock1,unrelated,53,1,525,525,525,7,even,7,black
21516,5:09:07,4,66,P27,496,session1different,session1,different,3,45,APblock1,unrelated,53,1,618,618,618,2,low,2,night
21516,5:09:07,4,66,P27,496,session1different,session1,different,3,66,APblock1,unrelated,53,1,666,666,666,3,salt,3,high
21516,5:09:07,4,66,P27,496,session1different,session1,different,3,67,APblock1,unrelated,53,1,686,686,686,11,fright,11,scratch
21516,5:09:07,4,66,P27,496,session1different,session1,different,3,68,APblock1,unrelated,53,1,572,572,572,13,cob,13,short
21516,5:09:07,4,66,P27,496,session1different,session1,different,3,73,APblock1,unrelated,53,1,844,844,844,20,son,20,time
21516,5:09:07,4,66,P27,496,session1different,session1,different,3,75,APblock1,unrelated,53,1,643,643,643,15,dusk,15,strong
21516,5:09:07,4,66,P27,496,session1different,session1,different,3,87,APblock1,unrelated,53,1,596,596,596,12,tall,12,scare
21516,5:09:07,4,66,P27,496,session1different,session1,different,3,89,APblock1,unrelated,53,1,578,578,578,5,shove,5,happy
21516,5:09:07,4,66,P27,496,session1different,session1,different,3,90,APblock1,unrelated,53,1,571,571,571,22,saucer,22,borrow
21516,5:09:07,4,66,P27,496,session1different,session1,different,3,98,APblock1,unrelated,53,1,497,497,497,23,run,23,cup
21516,5:09:07,4,66,P27,496,session1different,session1,different,3,108,APblock1,unrelated,53,1,568,568,568,30,husband,30,rock
21516,5:09:07,4,66,P27,496,session1different,session1,different,3,110,APblock1,unrelated,53,1,534,534,534,21,lend,21,walk
21516,5:09:07,4,66,P27,496,session1different,session1,different,3,117,APblock1,unrelated,53,1,644,644,644,18,dime,18,daughter
21516,5:09:07,4,66,P27,496,session1different,session1,different,3,119,APblock1,unrelated,53,1,448,448,448,10,last,10,dryer
21516,6:20:11,3,75,P30,390,session1different,session1,different,3,25,APblock1,related,53,1,499,499,499,6,shove,6,push
21516,6:20:11,3,75,P30,390,session1different,session1,different,3,31,APblock1,related,53,1,576,576,576,28,love,28,hate
21516,6:20:11,3,75,P30,390,session1different,session1,different,3,32,APblock1,related,53,1,540,540,540,26,gum,26,chew
21516,6:20:11,3,75,P30,390,session1different,session1,different,3,48,APblock1,related,53,1,468,468,468,21,run,21,walk
21516,6:20:11,3,75,P30,390,session1different,session1,different,3,52,APblock1,related,53,1,452,452,452,17,last,17,first
21516,6:20:11,3,75,P30,390,session1different,session1,different,3,63,APblock1,related,53,1,475,475,475,2,day,2,night
21516,6:20:11,3,75,P30,390,session1different,session1,different,3,76,APblock1,related,53,1,482,482,482,22,lend,22,borrow
21516,6:20:11,3,75,P30,390,session1different,session1,different,3,80,APblock1,related,53,1,746,746,746,13,tall,13,short
21516,6:20:11,3,75,P30,390,session1different,session1,different,3,97,APblock1,related,53,1,467,467,467,9,erupt,9,volcano
21516,6:20:11,3,75,P30,390,session1different,session1,different,3,105,APblock1,related,53,1,704,704,704,18,son,18,daughter
21516,6:20:11,3,75,P30,390,session1different,session1,different,3,106,APblock1,related,53,1,504,504,504,20,clock,20,time
21516,6:20:11,3,75,P30,390,session1different,session1,different,3,108,APblock1,related,53,1,564,564,564,7,white,7,black
21516,6:20:11,3,75,P30,390,session1different,session1,different,3,110,APblock1,related,53,1,552,552,552,25,taxi,25,cab
21516,6:20:11,3,75,P30,390,session1different,session1,different,3,114,APblock1,related,53,1,553,553,553,11,itch,11,scratch
21516,6:20:11,3,75,P30,390,session1different,session1,different,3,118,APblock1,related,53,1,480,480,480,15,weak,15,strong
21516,6:20:11,3,75,P30,390,session1different,session1,different,3,13,APblock1,unrelated,53,1,584,584,584,6,top,6,woman
21516,6:20:11,3,75,P30,390,session1different,session1,different,3,15,APblock1,unrelated,53,1,541,541,541,26,vanish,26,angry
21516,6:20:11,3,75,P30,390,session1different,session1,different,3,16,APblock1,unrelated,53,1,730,730,730,3,before,3,nail
21516,6:20:11,3,75,P30,390,session1different,session1,different,3,23,APblock1,unrelated,53,1,578,578,578,12,thunder,12,square
21516,6:20:11,3,75,P30,390,session1different,session1,different,3,27,APblock1,unrelated,53,1,733,733,733,7,hot,7,bottom
21516,6:20:11,3,75,P30,390,session1different,session1,different,3,30,APblock1,unrelated,53,1,811,811,811,22,minor,22,wet
21516,6:20:11,3,75,P30,390,session1different,session1,different,3,36,APblock1,unrelated,53,1,591,591,591,23,sting,23,major
21516,6:20:11,3,75,P30,390,session1different,session1,different,3,39,APblock1,unrelated,53,1,472,472,472,16,tomorrow,16,cold
21516,6:20:11,3,75,P30,390,session1different,session1,different,3,45,APblock1,unrelated,53,1,758,758,758,28,follow,28,present
21516,6:20:11,3,75,P30,390,session1different,session1,different,3,50,APblock1,unrelated,53,1,502,502,502,15,touch,15,ketchup
21516,6:20:11,3,75,P30,390,session1different,session1,different,3,59,APblock1,unrelated,53,1,634,634,634,2,hammer,2,queen
21516,6:20:11,3,75,P30,390,session1different,session1,different,3,71,APblock1,unrelated,53,1,538,538,538,10,silver,10,close
21516,6:20:11,3,75,P30,390,session1different,session1,different,3,94,APblock1,unrelated,53,1,794,794,794,17,empty,17,today
21516,6:20:11,3,75,P30,390,session1different,session1,different,3,95,APblock1,unrelated,53,1,531,531,531,21,dry,21,butter
21516,6:20:11,3,75,P30,390,session1different,session1,different,3,98,APblock1,unrelated,53,1,447,447,447,9,open,9,scream
21516,13:50:43,3,88,P35,429,session1different,session1,different,3,1,APblock1,related,53,1,428,428,428,22,lend,22,borrow
21516,13:50:43,3,88,P35,429,session1different,session1,different,3,24,APblock1,related,53,1,518,518,518,13,tall,13,short
21516,13:50:43,3,88,P35,429,session1different,session1,different,3,45,APblock1,related,53,1,615,615,615,17,last,17,first
21516,13:50:43,3,88,P35,429,session1different,session1,different,3,53,APblock1,related,53,1,389,389,389,28,love,28,hate
21516,13:50:43,3,88,P35,429,session1different,session1,different,3,56,APblock1,related,53,1,460,460,460,15,weak,15,strong
21516,13:50:43,3,88,P35,429,session1different,session1,different,3,61,APblock1,related,44,0,491,,,10,washer,10,dryer
21516,13:50:43,3,88,P35,429,session1different,session1,different,3,64,APblock1,related,53,1,457,457,457,7,white,7,black
21516,13:50:43,3,88,P35,429,session1different,session1,different,3,70,APblock1,related,53,1,648,648,648,29,cash,29,money
21516,13:50:43,3,88,P35,429,session1different,session1,different,3,82,APblock1,related,53,1,689,689,689,6,shove,6,push
21516,13:50:43,3,88,P35,429,session1different,session1,different,3,92,APblock1,related,53,1,452,452,452,11,itch,11,scratch
21516,13:50:43,3,88,P35,429,session1different,session1,different,3,95,APblock1,related,53,1,420,420,420,1,husband,1,wife
21516,13:50:43,3,88,P35,429,session1different,session1,different,3,98,APblock1,related,44,0,527,,,5,sad,5,happy
21516,13:50:43,3,88,P35,429,session1different,session1,different,3,111,APblock1,related,53,1,615,615,615,4,salt,4,pepper
21516,13:50:43,3,88,P35,429,session1different,session1,different,3,113,APblock1,related,53,1,544,544,544,3,low,3,high
21516,13:50:43,3,88,P35,429,session1different,session1,different,3,114,APblock1,related,53,1,476,476,476,20,clock,20,time
21516,13:50:43,3,88,P35,429,session1different,session1,different,3,2,APblock1,unrelated,53,1,367,367,367,21,dry,21,butter
21516,13:50:43,3,88,P35,429,session1different,session1,different,3,4,APblock1,unrelated,53,1,436,436,436,5,man,5,less
21516,13:50:43,3,88,P35,429,session1different,session1,different,3,11,APblock1,unrelated,53,1,491,491,491,27,gift,27,disappear
21516,13:50:43,3,88,P35,429,session1different,session1,different,3,35,APblock1,unrelated,53,1,558,558,558,22,minor,22,wet
21516,13:50:43,3,88,P35,429,session1different,session1,different,3,36,APblock1,unrelated,53,1,481,481,481,11,circle,11,gold
21516,13:50:43,3,88,P35,429,session1different,session1,different,3,40,APblock1,unrelated,53,1,577,577,577,1,king,1,bad
21516,13:50:43,3,88,P35,429,session1different,session1,different,3,42,APblock1,unrelated,53,1,455,455,455,2,hammer,2,queen
21516,13:50:43,3,88,P35,429,session1different,session1,different,3,47,APblock1,unrelated,53,1,439,439,439,25,mad,25,sweep
21516,13:50:43,3,88,P35,429,session1different,session1,different,3,49,APblock1,unrelated,53,1,549,549,549,19,lime,19,tight
21516,13:50:43,3,88,P35,429,session1different,session1,different,3,50,APblock1,unrelated,53,1,602,602,602,23,sting,23,major
21516,13:50:43,3,88,P35,429,session1different,session1,different,3,76,APblock1,unrelated,53,1,586,586,586,14,mustard,14,alligator
21516,13:50:43,3,88,P35,429,session1different,session1,different,3,80,APblock1,unrelated,53,1,541,541,541,28,follow,28,present
21516,13:50:43,3,88,P35,429,session1different,session1,different,3,83,APblock1,unrelated,53,1,488,488,488,12,thunder,12,square
21516,13:50:43,3,88,P35,429,session1different,session1,different,3,87,APblock1,unrelated,53,1,699,699,699,16,tomorrow,16,cold
21516,13:50:43,3,88,P35,429,session1different,session1,different,3,93,APblock1,unrelated,53,1,464,464,464,7,hot,7,bottom
21516,7:52:37,2,92,P36,440,session1different,session1,different,3,20,APblock1,related,53,1,546,546,546,1,found,1,lost
21516,7:52:37,2,92,P36,440,session1different,session1,different,3,25,APblock1,related,53,1,837,837,837,6,left,6,right
21516,7:52:37,2,92,P36,440,session1different,session1,different,3,26,APblock1,related,53,1,473,473,473,29,win,29,lose
21516,7:52:37,2,92,P36,440,session1different,session1,different,3,30,APblock1,related,53,1,462,462,462,9,rich,9,poor
21516,7:52:37,2,92,P36,440,session1different,session1,different,3,34,APblock1,related,53,1,746,746,746,26,cautious,26,careful
21516,7:52:37,2,92,P36,440,session1different,session1,different,3,47,APblock1,related,53,1,413,413,413,22,big,22,small
21516,7:52:37,2,92,P36,440,session1different,session1,different,3,50,APblock1,related,53,1,439,439,439,12,buyer,12,seller
21516,7:52:37,2,92,P36,440,session1different,session1,different,3,53,APblock1,related,53,1,670,670,670,21,awake,21,asleep
21516,7:52:37,2,92,P36,440,session1different,session1,different,3,65,APblock1,related,53,1,439,439,439,5,brother,5,sister
21516,7:52:37,2,92,P36,440,session1different,session1,different,3,93,APblock1,related,53,1,408,408,408,14,hard,14,soft
21516,7:52:37,2,92,P36,440,session1different,session1,different,3,101,APblock1,related,53,1,404,404,404,28,stand,28,sit
21516,7:52:37,2,92,P36,440,session1different,session1,different,3,102,APblock1,related,53,1,425,425,425,16,navy,16,army
21516,7:52:37,2,92,P36,440,session1different,session1,different,3,114,APblock1,related,53,1,533,533,533,10,thread,10,needle
21516,7:52:37,2,92,P36,440,session1different,session1,different,3,115,APblock1,related,53,1,642,642,642,18,over,18,under
21516,7:52:37,2,92,P36,440,session1different,session1,different,3,118,APblock1,related,53,1,569,569,569,20,trash,20,garbage
21516,7:52:37,2,92,P36,440,session1different,session1,different,3,7,APblock1,unrelated,53,1,809,809,809,21,alive,21,chair
21516,7:52:37,2,92,P36,440,session1different,session1,different,3,11,APblock1,unrelated,53,1,851,851,851,20,table,20,late
21516,7:52:37,2,92,P36,440,session1different,session1,different,3,27,APblock1,unrelated,53,1,518,518,518,1,father,1,west
21516,7:52:37,2,92,P36,440,session1different,session1,different,3,36,APblock1,unrelated,53,1,679,679,679,6,yours,6,negative
21516,7:52:37,2,92,P36,440,session1different,session1,different,3,40,APblock1,unrelated,53,1,596,596,596,3,question,3,uncle
21516,7:52:37,2,92,P36,440,session1different,session1,different,3,44,APblock1,unrelated,53,1,504,504,504,5,dog,5,answer
21516,7:52:37,2,92,P36,440,session1different,session1,different,3,48,APblock1,unrelated,53,1,490,490,490,8,arm,8,cat
21516,7:52:37,2,92,P36,440,session1different,session1,different,3,66,APblock1,unrelated,53,1,448,448,448,13,pain,13,outside
21516,7:52:37,2,92,P36,440,session1different,session1,different,3,72,APblock1,unrelated,53,1,524,524,524,11,ill,11,nephew
21516,7:52:37,2,92,P36,440,session1different,session1,different,3,84,APblock1,unrelated,53,1,421,421,421,7,above,7,mine
21516,7:52:37,2,92,P36,440,session1different,session1,different,3,87,APblock1,unrelated,53,1,449,449,449,30,east,30,tea
21516,7:52:37,2,92,P36,440,session1different,session1,different,3,88,APblock1,unrelated,53,1,554,554,554,25,precise,25,spider
21516,7:52:37,2,92,P36,440,session1different,session1,different,3,106,APblock1,unrelated,53,1,452,452,452,4,positive,4,mother
21516,7:52:37,2,92,P36,440,session1different,session1,different,3,110,APblock1,unrelated,53,1,693,693,693,14,north,14,hurt
21516,7:52:37,2,92,P36,440,session1different,session1,different,3,116,APblock1,unrelated,53,1,474,474,474,19,early,19,different
21516,8:11:50,1,117,P42,903,session1different,session1,different,3,3,APblock1,related,53,1,710,710,710,2,north,2,south
21516,8:11:50,1,117,P42,903,session1different,session1,different,3,7,APblock1,related,53,1,734,734,734,22,alive,22,dead
21516,8:11:50,1,117,P42,903,session1different,session1,different,3,8,APblock1,related,53,1,437,437,437,10,fast,10,slow
21516,8:11:50,1,117,P42,903,session1different,session1,different,3,14,APblock1,related,53,1,456,456,456,23,rip,23,tear
21516,8:11:50,1,117,P42,903,session1different,session1,different,3,23,APblock1,related,53,1,446,446,446,1,east,1,west
21516,8:11:50,1,117,P42,903,session1different,session1,different,3,34,APblock1,related,53,1,457,457,457,9,arm,9,leg
21516,8:11:50,1,117,P42,903,session1different,session1,different,3,44,APblock1,related,53,1,457,457,457,15,above,15,below
21516,8:11:50,1,117,P42,903,session1different,session1,different,3,48,APblock1,related,53,1,465,465,465,13,inside,13,outside
21516,8:11:50,1,117,P42,903,session1different,session1,different,3,55,APblock1,related,53,1,548,548,548,17,best,17,worst
21516,8:11:50,1,117,P42,903,session1different,session1,different,3,58,APblock1,related,53,1,453,453,453,24,syrup,24,pancakes
21516,8:11:50,1,117,P42,903,session1different,session1,different,3,79,APblock1,related,53,1,429,429,429,7,yours,7,mine
21516,8:11:50,1,117,P42,903,session1different,session1,different,3,89,APblock1,related,53,1,723,723,723,18,forget,18,remember
21516,8:11:50,1,117,P42,903,session1different,session1,different,3,93,APblock1,related,53,1,459,459,459,27,few,27,many
21516,8:11:50,1,117,P42,903,session1different,session1,different,3,116,APblock1,related,53,1,541,541,541,4,father,4,mother
21516,8:11:50,1,117,P42,903,session1different,session1,different,3,119,APblock1,related,53,1,883,883,,29,innocent,29,guilty
21516,8:11:50,1,117,P42,903,session1different,session1,different,3,13,APblock1,unrelated,53,1,438,438,438,11,buyer,11,dumb
21516,8:11:50,1,117,P42,903,session1different,session1,different,3,17,APblock1,unrelated,53,1,503,503,503,25,cautious,25,doctor
21516,8:11:50,1,117,P42,903,session1different,session1,different,3,29,APblock1,unrelated,53,1,677,677,677,29,eat,29,lose
21516,8:11:50,1,117,P42,903,session1different,session1,different,3,32,APblock1,unrelated,53,1,487,487,487,30,found,30,food
21516,8:11:50,1,117,P42,903,session1different,session1,different,3,41,APblock1,unrelated,53,1,486,486,486,1,bride,1,lost
21516,8:11:50,1,117,P42,903,session1different,session1,different,3,57,APblock1,unrelated,53,1,518,518,518,15,navy,15,beach
21516,8:11:50,1,117,P42,903,session1different,session1,different,3,59,APblock1,unrelated,53,1,431,431,431,6,front,6,right
21516,8:11:50,1,117,P42,903,session1different,session1,different,3,62,APblock1,unrelated,53,1,463,463,463,14,sand,14,soft
21516,8:11:50,1,117,P42,903,session1different,session1,different,3,75,APblock1,unrelated,53,1,533,533,533,24,nurse,24,bow
21516,8:11:50,1,117,P42,903,session1different,session1,different,3,96,APblock1,unrelated,53,1,610,610,610,22,enter,22,small
21516,8:11:50,1,117,P42,903,session1different,session1,different,3,98,APblock1,unrelated,53,1,492,492,492,13,hard,13,dinner
21516,8:11:50,1,117,P42,903,session1different,session1,different,3,99,APblock1,unrelated,53,1,629,629,629,7,new,7,back
21516,8:11:50,1,117,P42,903,session1different,session1,different,3,107,APblock1,unrelated,53,1,532,532,532,16,near,16,army
21516,8:11:50,1,117,P42,903,session1different,session1,different,3,111,APblock1,unrelated,53,1,510,510,510,17,over,17,far
21516,8:11:50,1,117,P42,903,session1different,session1,different,3,120,APblock1,unrelated,53,1,460,460,460,9,thread,9,poor
21516,5:31:24,1,135,P49,510,session1different,session1,different,3,4,APblock1,related,53,1,513,513,513,18,forget,18,remember
21516,5:31:24,1,135,P49,510,session1different,session1,different,3,9,APblock1,related,53,1,586,586,586,15,above,15,below
21516,5:31:24,1,135,P49,510,session1different,session1,different,3,11,APblock1,related,53,1,435,435,435,4,father,4,mother
21516,5:31:24,1,135,P49,510,session1different,session1,different,3,16,APblock1,related,53,1,465,465,465,8,dog,8,cat
21516,5:31:24,1,135,P49,510,session1different,session1,different,3,23,APblock1,related,53,1,507,507,507,29,innocent,29,guilty
21516,5:31:24,1,135,P49,510,session1different,session1,different,3,26,APblock1,related,53,1,529,529,529,14,pain,14,hurt
21516,5:31:24,1,135,P49,510,session1different,session1,different,3,39,APblock1,related,53,1,591,591,591,5,question,5,answer
21516,5:31:24,1,135,P49,510,session1different,session1,different,3,45,APblock1,related,53,1,500,500,500,26,precise,26,exact
21516,5:31:24,1,135,P49,510,session1different,session1,different,3,54,APblock1,related,53,1,491,491,491,7,yours,7,mine
21516,5:31:24,1,135,P49,510,session1different,session1,different,3,55,APblock1,related,53,1,445,445,445,17,best,17,worst
21516,5:31:24,1,135,P49,510,session1different,session1,different,3,59,APblock1,related,53,1,488,488,488,3,aunt,3,uncle
21516,5:31:24,1,135,P49,510,session1different,session1,different,3,97,APblock1,related,53,1,483,483,483,13,inside,13,outside
21516,5:31:24,1,135,P49,510,session1different,session1,different,3,107,APblock1,related,53,1,471,471,471,24,syrup,24,pancakes
21516,5:31:24,1,135,P49,510,session1different,session1,different,3,108,APblock1,related,53,1,455,455,455,19,same,19,different
21516,5:31:24,1,135,P49,510,session1different,session1,different,3,115,APblock1,related,53,1,634,634,634,23,rip,23,tear
21516,5:31:24,1,135,P49,510,session1different,session1,different,3,24,APblock1,unrelated,53,1,588,588,588,5,left,5,sister
21516,5:31:24,1,135,P49,510,session1different,session1,different,3,27,APblock1,unrelated,53,1,403,403,403,14,sand,14,soft
21516,5:31:24,1,135,P49,510,session1different,session1,different,3,30,APblock1,unrelated,53,1,519,519,519,12,girl,12,seller
21516,5:31:24,1,135,P49,510,session1different,session1,different,3,32,APblock1,unrelated,53,1,533,533,533,6,front,6,right
21516,5:31:24,1,135,P49,510,session1different,session1,different,3,40,APblock1,unrelated,53,1,495,495,495,10,stupid,10,needle
21516,5:31:24,1,135,P49,510,session1different,session1,different,3,47,APblock1,unrelated,53,1,720,720,720,1,bride,1,lost
21516,5:31:24,1,135,P49,510,session1different,session1,different,3,53,APblock1,unrelated,53,1,476,476,476,8,rich,8,old
21516,5:31:24,1,135,P49,510,session1different,session1,different,3,57,APblock1,unrelated,44,0,11,,,13,hard,13,dinner
21516,5:31:24,1,135,P49,510,session1different,session1,different,3,63,APblock1,unrelated,53,1,513,513,513,21,big,21,asleep
21516,5:31:24,1,135,P49,510,session1different,session1,different,3,67,APblock1,unrelated,53,1,595,595,595,30,found,30,food
21516,5:31:24,1,135,P49,510,session1different,session1,different,3,89,APblock1,unrelated,44,0,506,,,20,awake,20,garbage
21516,5:31:24,1,135,P49,510,session1different,session1,different,3,93,APblock1,unrelated,53,1,563,563,563,25,cautious,25,doctor
21516,5:31:24,1,135,P49,510,session1different,session1,different,3,105,APblock1,unrelated,53,1,739,739,739,15,navy,15,beach
21516,5:31:24,1,135,P49,510,session1different,session1,different,3,116,APblock1,unrelated,53,1,560,560,560,24,nurse,24,bow
21516,5:31:24,1,135,P49,510,session1different,session1,different,3,121,APblock1,unrelated,53,1,413,413,413,7,new,7,back
21516,8:35:26,4,140,P51,527,session1different,session1,different,3,2,APblock1,related,53,1,462,462,462,25,broom,25,sweep
21516,8:35:26,4,140,P51,527,session1different,session1,different,3,5,APblock1,related,53,1,459,459,459,5,more,5,less
21516,8:35:26,4,140,P51,527,session1different,session1,different,3,6,APblock1,related,53,1,490,490,490,18,touch,18,feel
21516,8:35:26,4,140,P51,527,session1different,session1,different,3,8,APblock1,related,53,1,452,452,452,3,hammer,3,nail
21516,8:35:26,4,140,P51,527,session1different,session1,different,3,21,APblock1,related,53,1,418,418,418,22,dry,22,wet
21516,8:35:26,4,140,P51,527,session1different,session1,different,3,30,APblock1,related,53,1,398,398,398,13,thunder,13,lightning
21516,8:35:26,4,140,P51,527,session1different,session1,different,3,31,APblock1,related,53,1,496,496,496,26,mad,26,angry
21516,8:35:26,4,140,P51,527,session1different,session1,different,3,47,APblock1,related,53,1,520,520,520,24,sting,24,bee
21516,8:35:26,4,140,P51,527,session1different,session1,different,3,70,APblock1,related,53,1,474,474,474,16,hot,16,cold
21516,8:35:26,4,140,P51,527,session1different,session1,different,3,82,APblock1,related,53,1,456,456,456,29,follow,29,lead
21516,8:35:26,4,140,P51,527,session1different,session1,different,3,92,APblock1,related,53,1,463,463,463,20,lime,20,lemon
21516,8:35:26,4,140,P51,527,session1different,session1,different,3,94,APblock1,related,53,1,705,705,705,27,vanish,27,disappear
21516,8:35:26,4,140,P51,527,session1different,session1,different,3,105,APblock1,related,53,1,517,517,517,21,margarine,21,butter
21516,8:35:26,4,140,P51,527,session1different,session1,different,3,108,APblock1,related,53,1,632,632,632,14,crocodile,14,alligator
21516,8:35:26,4,140,P51,527,session1different,session1,different,3,112,APblock1,related,53,1,390,390,390,4,before,4,after
21516,8:35:26,4,140,P51,527,session1different,session1,different,3,17,APblock1,unrelated,53,1,590,590,590,5,shove,5,happy
21516,8:35:26,4,140,P51,527,session1different,session1,different,3,19,APblock1,unrelated,53,1,600,600,600,16,itch,16,dawn
21516,8:35:26,4,140,P51,527,session1different,session1,different,3,23,APblock1,unrelated,53,1,765,765,765,10,last,10,dryer
21516,8:35:26,4,140,P51,527,session1different,session1,different,3,40,APblock1,unrelated,53,1,483,483,483,28,cash,28,hate
21516,8:35:26,4,140,P51,527,session1different,session1,different,3,49,APblock1,unrelated,53,1,565,565,565,15,dusk,15,strong
21516,8:35:26,4,140,P51,527,session1different,session1,different,3,51,APblock1,unrelated,53,1,425,425,425,18,dime,18,daughter
21516,8:35:26,4,140,P51,527,session1different,session1,different,3,52,APblock1,unrelated,53,1,402,402,402,3,salt,3,high
21516,8:35:26,4,140,P51,527,session1different,session1,different,3,57,APblock1,unrelated,53,1,701,701,701,1,day,1,wife
21516,8:35:26,4,140,P51,527,session1different,session1,different,3,64,APblock1,unrelated,53,1,634,634,634,29,stone,29,money
21516,8:35:26,4,140,P51,527,session1different,session1,different,3,66,APblock1,unrelated,44,0,511,,,27,love,27,home
21516,8:35:26,4,140,P51,527,session1different,session1,different,3,67,APblock1,unrelated,53,1,477,477,477,22,saucer,22,borrow
21516,8:35:26,4,140,P51,527,session1different,session1,different,3,83,APblock1,unrelated,53,1,568,568,568,30,husband,30,rock
21516,8:35:26,4,140,P51,527,session1different,session1,different,3,84,APblock1,unrelated,53,1,516,516,516,13,cob,13,short
21516,8:35:26,4,140,P51,527,session1different,session1,different,3,89,APblock1,unrelated,53,1,498,498,498,7,even,7,black
21516,8:35:26,4,140,P51,527,session1different,session1,different,3,110,APblock1,unrelated,53,1,1072,1072,1072,17,toad,17,first
21516,7:42:29,3,149,P55,605,session1different,session1,different,3,4,APblock1,related,53,1,621,621,621,21,run,21,walk
21516,7:42:29,3,149,P55,605,session1different,session1,different,3,9,APblock1,related,53,1,565,565,565,3,low,3,high
21516,7:42:29,3,149,P55,605,session1different,session1,different,3,32,APblock1,related,53,1,548,548,548,17,last,17,first
21516,7:42:29,3,149,P55,605,session1different,session1,different,3,40,APblock1,related,53,1,662,662,662,1,husband,1,wife
21516,7:42:29,3,149,P55,605,session1different,session1,different,3,48,APblock1,related,53,1,512,512,512,2,day,2,night
21516,7:42:29,3,149,P55,605,session1different,session1,different,3,54,APblock1,related,53,1,619,619,619,16,dusk,16,dawn
21516,7:42:29,3,149,P55,605,session1different,session1,different,3,59,APblock1,related,53,1,525,525,525,28,love,28,hate
21516,7:42:29,3,149,P55,605,session1different,session1,different,3,73,APblock1,related,53,1,563,563,563,8,even,8,odd
21516,7:42:29,3,149,P55,605,session1different,session1,different,3,85,APblock1,related,53,1,580,580,580,11,itch,11,scratch
21516,7:42:29,3,149,P55,605,session1different,session1,different,3,87,APblock1,related,44,0,692,,,19,dime,19,nickel
21516,7:42:29,3,149,P55,605,session1different,session1,different,3,90,APblock1,related,53,1,556,556,556,26,gum,26,chew
21516,7:42:29,3,149,P55,605,session1different,session1,different,3,91,APblock1,related,53,1,739,739,739,27,house,27,home
21516,7:42:29,3,149,P55,605,session1different,session1,different,3,99,APblock1,related,53,1,628,628,628,30,stone,30,rock
21516,7:42:29,3,149,P55,605,session1different,session1,different,3,100,APblock1,related,53,1,628,628,628,25,taxi,25,cab
21516,7:42:29,3,149,P55,605,session1different,session1,different,3,104,APblock1,related,53,1,617,617,617,15,weak,15,strong
21516,7:42:29,3,149,P55,605,session1different,session1,different,3,1,APblock1,unrelated,53,1,647,647,647,17,empty,17,today
21516,7:42:29,3,149,P55,605,session1different,session1,different,3,5,APblock1,unrelated,53,1,696,696,696,23,sting,23,major
21516,7:42:29,3,149,P55,605,session1different,session1,different,3,13,APblock1,unrelated,53,1,637,637,637,13,crocodile,13,lightning
21516,7:42:29,3,149,P55,605,session1different,session1,different,3,16,APblock1,unrelated,53,1,581,581,581,26,vanish,26,angry
21516,7:42:29,3,149,P55,605,session1different,session1,different,3,20,APblock1,unrelated,53,1,569,569,569,22,minor,22,wet
21516,7:42:29,3,149,P55,605,session1different,session1,different,3,23,APblock1,unrelated,53,1,606,606,606,4,more,4,after
21516,7:42:29,3,149,P55,605,session1different,session1,different,3,25,APblock1,unrelated,53,1,571,571,571,7,hot,7,bottom
21516,7:42:29,3,149,P55,605,session1different,session1,different,3,35,APblock1,unrelated,53,1,581,581,581,11,circle,11,gold
21516,7:42:29,3,149,P55,605,session1different,session1,different,3,46,APblock1,unrelated,53,1,645,645,645,20,good,20,lemon
21516,7:42:29,3,149,P55,605,session1different,session1,different,3,56,APblock1,unrelated,53,1,514,514,514,21,dry,21,butter
21516,7:42:29,3,149,P55,605,session1different,session1,different,3,60,APblock1,unrelated,53,1,693,693,693,5,man,5,less
21516,7:42:29,3,149,P55,605,session1different,session1,different,3,84,APblock1,unrelated,53,1,650,650,650,18,loose,18,feel
21516,7:42:29,3,149,P55,605,session1different,session1,different,3,86,APblock1,unrelated,53,1,606,606,606,6,top,6,woman
21516,7:42:29,3,149,P55,605,session1different,session1,different,3,115,APblock1,unrelated,53,1,595,595,595,30,margarine,30,want
21516,7:42:29,3,149,P55,605,session1different,session1,different,3,116,APblock1,unrelated,53,1,681,681,681,27,gift,27,disappear
21516,8:50:01,4,156,P58,452,session1different,session1,different,3,12,APblock1,related,53,1,396,396,396,11,silver,11,gold
21516,8:50:01,4,156,P58,452,session1different,session1,different,3,21,APblock1,related,53,1,627,627,627,29,follow,29,lead
21516,8:50:01,4,156,P58,452,session1different,session1,different,3,23,APblock1,related,53,1,385,385,385,8,empty,8,full
21516,8:50:01,4,156,P58,452,session1different,session1,different,3,32,APblock1,related,53,1,2043,2043,,10,open,10,close
21516,8:50:01,4,156,P58,452,session1different,session1,different,3,45,APblock1,related,53,1,524,524,524,23,minor,23,major
21516,8:50:01,4,156,P58,452,session1different,session1,different,3,67,APblock1,related,53,1,542,542,542,9,yell,9,scream
21516,8:50:01,4,156,P58,452,session1different,session1,different,3,70,APblock1,related,53,1,597,597,597,13,thunder,13,lightning
21516,8:50:01,4,156,P58,452,session1different,session1,different,3,72,APblock1,related,44,0,401,,,28,gift,28,present
21516,8:50:01,4,156,P58,452,session1different,session1,different,3,77,APblock1,related,53,1,641,641,641,20,lime,20,lemon
21516,8:50:01,4,156,P58,452,session1different,session1,different,3,81,APblock1,related,53,1,636,636,636,4,before,4,after
21516,8:50:01,4,156,P58,452,session1different,session1,different,3,103,APblock1,related,53,1,481,481,481,3,hammer,3,nail
21516,8:50:01,4,156,P58,452,session1different,session1,different,3,114,APblock1,related,53,1,464,464,464,1,good,1,bad
21516,8:50:01,4,156,P58,452,session1different,session1,different,3,117,APblock1,related,53,1,539,539,539,6,man,6,woman
21516,8:50:01,4,156,P58,452,session1different,session1,different,3,119,APblock1,related,53,1,653,653,653,18,touch,18,feel
21516,8:50:01,4,156,P58,452,session1different,session1,different,3,120,APblock1,related,53,1,440,440,440,21,margarine,21,butter
21516,8:50:01,4,156,P58,452,session1different,session1,different,3,5,APblock1,unrelated,53,1,414,414,414,1,day,1,wife
21516,8:50:01,4,156,P58,452,session1different,session1,different,3,8,APblock1,unrelated,53,1,581,581,581,11,fright,11,scratch
21516,8:50:01,4,156,P58,452,session1different,session1,different,3,17,APblock1,unrelated,53,1,493,493,493,29,stone,29,money
21516,8:50:01,4,156,P58,452,session1different,session1,different,3,20,APblock1,unrelated,53,1,599,599,599,15,dusk,15,strong
21516,8:50:01,4,156,P58,452,session1different,session1,different,3,29,APblock1,unrelated,53,1,656,656,656,16,itch,16,dawn
21516,8:50:01,4,156,P58,452,session1different,session1,different,3,34,APblock1,unrelated,53,1,481,481,481,8,erupt,8,odd
21516,8:50:01,4,156,P58,452,session1different,session1,different,3,37,APblock1,unrelated,53,1,693,693,693,25,gum,25,cab
21516,8:50:01,4,156,P58,452,session1different,session1,different,3,49,APblock1,unrelated,53,1,473,473,473,17,toad,17,first
21516,8:50:01,4,156,P58,452,session1different,session1,different,3,63,APblock1,unrelated,53,1,522,522,522,20,son,20,time
21516,8:50:01,4,156,P58,452,session1different,session1,different,3,75,APblock1,unrelated,53,1,575,575,575,12,tall,12,scare
21516,8:50:01,4,156,P58,452,session1different,session1,different,3,93,APblock1,unrelated,53,1,705,705,705,24,taxi,24,frog
21516,8:50:01,4,156,P58,452,session1different,session1,different,3,97,APblock1,unrelated,53,1,534,534,534,22,saucer,22,borrow
21516,8:50:01,4,156,P58,452,session1different,session1,different,3,102,APblock1,unrelated,53,1,430,430,430,19,clock,19,nickel
21516,8:50:01,4,156,P58,452,session1different,session1,different,3,105,APblock1,unrelated,53,1,417,417,417,2,low,2,night
21516,8:50:01,4,156,P58,452,session1different,session1,different,3,121,APblock1,unrelated,53,1,563,563,563,26,house,26,chew
21516,7:59:51,2,164,P62,930,session1different,session1,different,3,5,APblock1,related,53,1,673,673,673,18,over,18,under
21516,7:59:51,2,164,P62,930,session1different,session1,different,3,12,APblock1,related,53,1,471,471,471,28,stand,28,sit
21516,7:59:51,2,164,P62,930,session1different,session1,different,3,15,APblock1,related,53,1,459,459,459,9,rich,9,poor
21516,7:59:51,2,164,P62,930,session1different,session1,different,3,30,APblock1,related,53,1,522,522,522,12,buyer,12,seller
21516,7:59:51,2,164,P62,930,session1different,session1,different,3,36,APblock1,related,53,1,482,482,482,14,hard,14,soft
21516,7:59:51,2,164,P62,930,session1different,session1,different,3,41,APblock1,related,53,1,477,477,477,24,arrow,24,bow
21516,7:59:51,2,164,P62,930,session1different,session1,different,3,42,APblock1,related,53,1,505,505,505,13,supper,13,dinner
21516,7:59:51,2,164,P62,930,session1different,session1,different,3,56,APblock1,related,53,1,512,512,512,5,brother,5,sister
21516,7:59:51,2,164,P62,930,session1different,session1,different,3,57,APblock1,related,53,1,521,521,521,4,subtract,4,add
21516,7:59:51,2,164,P62,930,session1different,session1,different,3,69,APblock1,related,53,1,540,540,540,20,trash,20,garbage
21516,7:59:51,2,164,P62,930,session1different,session1,different,3,78,APblock1,related,53,1,532,532,532,15,sand,15,beach
21516,7:59:51,2,164,P62,930,session1different,session1,different,3,79,APblock1,related,53,1,482,482,482,7,front,7,back
21516,7:59:51,2,164,P62,930,session1different,session1,different,3,99,APblock1,related,53,1,559,559,559,11,stupid,11,dumb
21516,7:59:51,2,164,P62,930,session1different,session1,different,3,100,APblock1,related,53,1,446,446,446,25,nurse,25,doctor
21516,7:59:51,2,164,P62,930,session1different,session1,different,3,103,APblock1,related,53,1,496,496,496,29,win,29,lose
21516,7:59:51,2,164,P62,930,session1different,session1,different,3,1,APblock1,unrelated,53,1,862,862,862,2,aunt,2,south
21516,7:59:51,2,164,P62,930,session1different,session1,different,3,6,APblock1,unrelated,53,1,659,659,659,1,father,1,west
21516,7:59:51,2,164,P62,930,session1different,session1,different,3,11,APblock1,unrelated,53,1,546,546,546,23,syrup,23,tear
21516,7:59:51,2,164,P62,930,session1different,session1,different,3,13,APblock1,unrelated,53,1,581,581,581,27,give,27,many
21516,7:59:51,2,164,P62,930,session1different,session1,different,3,19,APblock1,unrelated,53,1,710,710,710,16,best,16,fork
21516,7:59:51,2,164,P62,930,session1different,session1,different,3,20,APblock1,unrelated,53,1,595,595,595,6,yours,6,negative
21516,7:59:51,2,164,P62,930,session1different,session1,different,3,48,APblock1,unrelated,53,1,555,555,555,13,pain,13,outside
21516,7:59:51,2,164,P62,930,session1different,session1,different,3,50,APblock1,unrelated,53,1,522,522,522,19,early,19,different
21516,7:59:51,2,164,P62,930,session1different,session1,different,3,64,APblock1,unrelated,53,1,557,557,557,21,alive,21,chair
21516,7:59:51,2,164,P62,930,session1different,session1,different,3,74,APblock1,unrelated,53,1,606,606,606,26,few,26,exact
21516,7:59:51,2,164,P62,930,session1different,session1,different,3,80,APblock1,unrelated,53,1,613,613,613,25,precise,25,spider
21516,7:59:51,2,164,P62,930,session1different,session1,different,3,83,APblock1,unrelated,53,1,540,540,540,3,question,3,uncle
21516,7:59:51,2,164,P62,930,session1different,session1,different,3,87,APblock1,unrelated,53,1,633,633,633,29,coffee,29,guilty
21516,7:59:51,2,164,P62,930,session1different,session1,different,3,96,APblock1,unrelated,53,1,495,495,495,18,same,18,remember
21516,7:59:51,2,164,P62,930,session1different,session1,different,3,106,APblock1,unrelated,53,1,565,565,565,24,web,24,pancakes
21516,9:00:58,3,179,P67,894,session1different,session1,different,3,4,APblock1,related,53,1,550,550,550,27,house,27,home
21516,9:00:58,3,179,P67,894,session1different,session1,different,3,5,APblock1,related,53,1,480,480,480,30,stone,30,rock
21516,9:00:58,3,179,P67,894,session1different,session1,different,3,16,APblock1,related,53,1,412,412,412,8,even,8,odd
21516,9:00:58,3,179,P67,894,session1different,session1,different,3,17,APblock1,related,53,1,442,442,442,16,dusk,16,dawn
21516,9:00:58,3,179,P67,894,session1different,session1,different,3,24,APblock1,related,53,1,498,498,498,21,run,21,walk
21516,9:00:58,3,179,P67,894,session1different,session1,different,3,25,APblock1,related,53,1,429,429,429,24,toad,24,frog
21516,9:00:58,3,179,P67,894,session1different,session1,different,3,27,APblock1,related,53,1,391,391,391,23,saucer,23,cup
21516,9:00:58,3,179,P67,894,session1different,session1,different,3,40,APblock1,related,53,1,441,441,441,2,day,2,night
21516,9:00:58,3,179,P67,894,session1different,session1,different,3,43,APblock1,related,53,1,480,480,480,5,sad,5,happy
21516,9:00:58,3,179,P67,894,session1different,session1,different,3,67,APblock1,related,53,1,435,435,435,26,gum,26,chew
21516,9:00:58,3,179,P67,894,session1different,session1,different,3,92,APblock1,related,53,1,448,448,448,14,cob,14,corn
21516,9:00:58,3,179,P67,894,session1different,session1,different,3,93,APblock1,related,53,1,373,373,373,7,white,7,black
21516,9:00:58,3,179,P67,894,session1different,session1,different,3,95,APblock1,related,53,1,410,410,410,6,shove,6,push
21516,9:00:58,3,179,P67,894,session1different,session1,different,3,100,APblock1,related,53,1,424,424,424,17,last,17,first
21516,9:00:58,3,179,P67,894,session1different,session1,different,3,111,APblock1,related,53,1,423,423,423,25,taxi,25,cab
21516,9:00:58,3,179,P67,894,session1different,session1,different,3,3,APblock1,unrelated,53,1,508,508,508,4,more,4,after
21516,9:00:58,3,179,P67,894,session1different,session1,different,3,10,APblock1,unrelated,53,1,511,511,511,19,lime,19,tight
21516,9:00:58,3,179,P67,894,session1different,session1,different,3,14,APblock1,unrelated,44,0,557,,,6,top,6,woman
21516,9:00:58,3,179,P67,894,session1different,session1,different,3,15,APblock1,unrelated,53,1,466,466,466,1,king,1,bad
21516,9:00:58,3,179,P67,894,session1different,session1,different,3,18,APblock1,unrelated,44,0,551,,,14,mustard,14,alligator
21516,9:00:58,3,179,P67,894,session1different,session1,different,3,32,APblock1,unrelated,53,1,514,514,514,18,loose,18,feel
21516,9:00:58,3,179,P67,894,session1different,session1,different,3,36,APblock1,unrelated,53,1,574,574,574,23,sting,23,major
21516,9:00:58,3,179,P67,894,session1different,session1,different,3,42,APblock1,unrelated,53,1,531,531,531,9,open,9,scream
21516,9:00:58,3,179,P67,894,session1different,session1,different,3,56,APblock1,unrelated,53,1,408,408,408,26,vanish,26,angry
21516,9:00:58,3,179,P67,894,session1different,session1,different,3,72,APblock1,unrelated,53,1,571,571,571,3,before,3,nail
21516,9:00:58,3,179,P67,894,session1different,session1,different,3,79,APblock1,unrelated,53,1,409,409,409,16,tomorrow,16,cold
21516,9:00:58,3,179,P67,894,session1different,session1,different,3,98,APblock1,unrelated,53,1,409,409,409,28,follow,28,present
21516,9:00:58,3,179,P67,894,session1different,session1,different,3,102,APblock1,unrelated,53,1,581,581,581,30,margarine,30,want
21516,9:00:58,3,179,P67,894,session1different,session1,different,3,105,APblock1,unrelated,53,1,541,541,541,5,man,5,less
21516,9:00:58,3,179,P67,894,session1different,session1,different,3,119,APblock1,unrelated,53,1,444,444,444,15,touch,15,ketchup
21516,9:11:53,2,199,P72,776,session1different,session1,different,3,8,APblock1,related,53,1,419,419,419,9,rich,9,poor
21516,9:11:53,2,199,P72,776,session1different,session1,different,3,11,APblock1,related,53,1,504,504,504,10,thread,10,needle
21516,9:11:53,2,199,P72,776,session1different,session1,different,3,18,APblock1,related,53,1,460,460,460,27,exam,27,test
21516,9:11:53,2,199,P72,776,session1different,session1,different,3,19,APblock1,related,53,1,505,505,505,2,bride,2,groom
21516,9:11:53,2,199,P72,776,session1different,session1,different,3,26,APblock1,related,53,1,423,423,423,5,brother,5,sister
21516,9:11:53,2,199,P72,776,session1different,session1,different,3,27,APblock1,related,53,1,478,478,478,19,frame,19,picture
21516,9:11:53,2,199,P72,776,session1different,session1,different,3,36,APblock1,related,53,1,473,473,473,7,front,7,back
21516,9:11:53,2,199,P72,776,session1different,session1,different,3,37,APblock1,related,53,1,478,478,478,12,buyer,12,seller
21516,9:11:53,2,199,P72,776,session1different,session1,different,3,44,APblock1,related,53,1,458,458,458,6,left,6,right
21516,9:11:53,2,199,P72,776,session1different,session1,different,3,80,APblock1,related,53,1,491,491,491,16,navy,16,army
21516,9:11:53,2,199,P72,776,session1different,session1,different,3,81,APblock1,related,53,1,567,567,567,29,win,29,lose
21516,9:11:53,2,199,P72,776,session1different,session1,different,3,88,APblock1,related,53,1,714,714,714,22,big,22,small
21516,9:11:53,2,199,P72,776,session1different,session1,different,3,90,APblock1,related,53,1,516,516,516,30,eat,30,food
21516,9:11:53,2,199,P72,776,session1different,session1,different,3,108,APblock1,related,53,1,874,874,874,1,found,1,lost
21516,9:11:53,2,199,P72,776,session1different,session1,different,3,119,APblock1,related,53,1,672,672,672,18,over,18,under
21516,9:11:53,2,199,P72,776,session1different,session1,different,3,3,APblock1,unrelated,53,1,537,537,537,18,same,18,remember
21516,9:11:53,2,199,P72,776,session1different,session1,different,3,15,APblock1,unrelated,53,1,571,571,571,10,niece,10,slow
21516,9:11:53,2,199,P72,776,session1different,session1,different,3,31,APblock1,unrelated,53,1,434,434,434,4,positive,4,mother
21516,9:11:53,2,199,P72,776,session1different,session1,different,3,33,APblock1,unrelated,53,1,400,400,400,22,rip,22,dead
21516,9:11:53,2,199,P72,776,session1different,session1,different,3,34,APblock1,unrelated,53,1,455,455,455,8,arm,8,cat
21516,9:11:53,2,199,P72,776,session1different,session1,different,3,51,APblock1,unrelated,53,1,500,500,500,9,fast,9,leg
21516,9:11:53,2,199,P72,776,session1different,session1,different,3,52,APblock1,unrelated,53,1,544,544,544,29,coffee,29,guilty
21516,9:11:53,2,199,P72,776,session1different,session1,different,3,67,APblock1,unrelated,53,1,549,549,549,1,father,1,west
21516,9:11:53,2,199,P72,776,session1different,session1,different,3,69,APblock1,unrelated,53,1,586,586,586,25,precise,25,spider
21516,9:11:53,2,199,P72,776,session1different,session1,different,3,73,APblock1,unrelated,53,1,552,552,552,24,web,24,pancakes
21516,9:11:53,2,199,P72,776,session1different,session1,different,3,79,APblock1,unrelated,53,1,487,487,487,16,best,16,fork
21516,9:11:53,2,199,P72,776,session1different,session1,different,3,97,APblock1,unrelated,53,1,630,630,630,11,ill,11,nephew
21516,9:11:53,2,199,P72,776,session1different,session1,different,3,104,APblock1,unrelated,53,1,657,657,657,7,above,7,mine
21516,9:11:53,2,199,P72,776,session1different,session1,different,3,105,APblock1,unrelated,53,1,557,557,557,19,early,19,different
21516,9:11:53,2,199,P72,776,session1different,session1,different,3,112,APblock1,unrelated,53,1,514,514,514,17,forget,17,worst
21516,8:24:04,4,215,P77,482,session1different,session1,different,3,6,APblock1,related,53,1,445,445,445,5,more,5,less
21516,8:24:04,4,215,P77,482,session1different,session1,different,3,7,APblock1,related,53,1,503,503,503,11,silver,11,gold
21516,8:24:04,4,215,P77,482,session1different,session1,different,3,9,APblock1,related,53,1,430,430,430,15,mustard,15,ketchup
21516,8:24:04,4,215,P77,482,session1different,session1,different,3,20,APblock1,related,53,1,506,506,506,3,hammer,3,nail
21516,8:24:04,4,215,P77,482,session1different,session1,different,3,30,APblock1,related,53,1,558,558,558,18,touch,18,feel
21516,8:24:04,4,215,P77,482,session1different,session1,different,3,33,APblock1,related,53,1,591,591,591,24,sting,24,bee
21516,8:24:04,4,215,P77,482,session1different,session1,different,3,44,APblock1,related,53,1,649,649,649,27,vanish,27,disappear
21516,8:24:04,4,215,P77,482,session1different,session1,different,3,52,APblock1,related,53,1,500,500,500,17,tomorrow,17,today
21516,8:24:04,4,215,P77,482,session1different,session1,different,3,58,APblock1,related,53,1,513,513,513,6,man,6,woman
21516,8:24:04,4,215,P77,482,session1different,session1,different,3,71,APblock1,related,53,1,578,578,578,10,open,10,close
21516,8:24:04,4,215,P77,482,session1different,session1,different,3,76,APblock1,related,53,1,570,570,570,25,broom,25,sweep
21516,8:24:04,4,215,P77,482,session1different,session1,different,3,81,APblock1,related,53,1,603,603,603,14,crocodile,14,alligator
21516,8:24:04,4,215,P77,482,session1different,session1,different,3,87,APblock1,related,53,1,526,526,526,1,good,1,bad
21516,8:24:04,4,215,P77,482,session1different,session1,different,3,92,APblock1,related,53,1,557,557,557,4,before,4,after
21516,8:24:04,4,215,P77,482,session1different,session1,different,3,106,APblock1,related,53,1,577,577,577,28,gift,28,present
21516,8:24:04,4,215,P77,482,session1different,session1,different,3,2,APblock1,unrelated,53,1,714,714,714,15,dusk,15,strong
21516,8:24:04,4,215,P77,482,session1different,session1,different,3,4,APblock1,unrelated,53,1,690,690,690,14,weak,14,corn
21516,8:24:04,4,215,P77,482,session1different,session1,different,3,10,APblock1,unrelated,53,1,417,417,417,22,saucer,22,borrow
21516,8:24:04,4,215,P77,482,session1different,session1,different,3,45,APblock1,unrelated,53,1,580,580,580,10,last,10,dryer
21516,8:24:04,4,215,P77,482,session1different,session1,different,3,51,APblock1,unrelated,53,1,608,608,608,9,washer,9,volcano
21516,8:24:04,4,215,P77,482,session1different,session1,different,3,63,APblock1,unrelated,53,1,518,518,518,13,cob,13,short
21516,8:24:04,4,215,P77,482,session1different,session1,different,3,66,APblock1,unrelated,53,1,575,575,575,8,erupt,8,odd
21516,8:24:04,4,215,P77,482,session1different,session1,different,3,75,APblock1,unrelated,53,1,605,605,605,30,husband,30,rock
21516,8:24:04,4,215,P77,482,session1different,session1,different,3,79,APblock1,unrelated,53,1,558,558,558,3,salt,3,high
21516,8:24:04,4,215,P77,482,session1different,session1,different,3,83,APblock1,unrelated,53,1,563,563,563,11,fright,11,scratch
21516,8:24:04,4,215,P77,482,session1different,session1,different,3,95,APblock1,unrelated,53,1,585,585,585,28,cash,28,hate
21516,8:24:04,4,215,P77,482,session1different,session1,different,3,96,APblock1,unrelated,53,1,575,575,575,21,lend,21,walk
21516,8:24:04,4,215,P77,482,session1different,session1,different,3,105,APblock1,unrelated,53,1,695,695,695,27,love,27,home
21516,8:24:04,4,215,P77,482,session1different,session1,different,3,110,APblock1,unrelated,53,1,559,559,559,6,white,6,push
21516,8:24:04,4,215,P77,482,session1different,session1,different,3,114,APblock1,unrelated,53,1,542,542,542,20,son,20,time
21516,7:38:19,2,226,P82,666,session1different,session1,different,3,8,APblock1,related,53,1,447,447,447,20,trash,20,garbage
21516,7:38:19,2,226,P82,666,session1different,session1,different,3,10,APblock1,related,53,1,505,505,505,11,stupid,11,dumb
21516,7:38:19,2,226,P82,666,session1different,session1,different,3,12,APblock1,related,53,1,597,597,597,21,awake,21,asleep
21516,7:38:19,2,226,P82,666,session1different,session1,different,3,21,APblock1,related,53,1,501,501,501,30,eat,30,food
21516,7:38:19,2,226,P82,666,session1different,session1,different,3,23,APblock1,related,53,1,464,464,464,1,found,1,lost
21516,7:38:19,2,226,P82,666,session1different,session1,different,3,45,APblock1,related,53,1,521,521,521,4,subtract,4,add
21516,7:38:19,2,226,P82,666,session1different,session1,different,3,77,APblock1,related,53,1,624,624,624,8,new,8,old
21516,7:38:19,2,226,P82,666,session1different,session1,different,3,79,APblock1,related,53,1,677,677,677,24,arrow,24,bow
21516,7:38:19,2,226,P82,666,session1different,session1,different,3,88,APblock1,related,53,1,587,587,587,16,navy,16,army
21516,7:38:19,2,226,P82,666,session1different,session1,different,3,90,APblock1,related,53,1,661,661,661,3,girl,3,boy
21516,7:38:19,2,226,P82,666,session1different,session1,different,3,96,APblock1,related,53,1,516,516,516,25,nurse,25,doctor
21516,7:38:19,2,226,P82,666,session1different,session1,different,3,100,APblock1,related,44,0,722,,,18,over,18,under
21516,7:38:19,2,226,P82,666,session1different,session1,different,3,109,APblock1,related,53,1,563,563,563,10,thread,10,needle
21516,7:38:19,2,226,P82,666,session1different,session1,different,3,114,APblock1,related,53,1,945,945,945,9,rich,9,poor
21516,7:38:19,2,226,P82,666,session1different,session1,different,3,119,APblock1,related,53,1,516,516,516,29,win,29,lose
21516,7:38:19,2,226,P82,666,session1different,session1,different,3,3,APblock1,unrelated,53,1,556,556,556,22,rip,22,dead
21516,7:38:19,2,226,P82,666,session1different,session1,different,3,6,APblock1,unrelated,53,1,527,527,527,21,alive,21,chair
21516,7:38:19,2,226,P82,666,session1different,session1,different,3,18,APblock1,unrelated,53,1,488,488,488,16,best,16,fork
21516,7:38:19,2,226,P82,666,session1different,session1,different,3,20,APblock1,unrelated,53,1,502,502,502,7,above,7,mine
21516,7:38:19,2,226,P82,666,session1different,session1,different,3,36,APblock1,unrelated,53,1,513,513,513,1,father,1,west
21516,7:38:19,2,226,P82,666,session1different,session1,different,3,62,APblock1,unrelated,53,1,1014,1014,1014,19,early,19,different
21516,7:38:19,2,226,P82,666,session1different,session1,different,3,63,APblock1,unrelated,53,1,642,642,642,14,north,14,hurt
21516,7:38:19,2,226,P82,666,session1different,session1,different,3,68,APblock1,unrelated,53,1,630,630,630,25,precise,25,spider
21516,7:38:19,2,226,P82,666,session1different,session1,different,3,74,APblock1,unrelated,53,1,684,684,684,11,ill,11,nephew
21516,7:38:19,2,226,P82,666,session1different,session1,different,3,83,APblock1,unrelated,53,1,1539,1539,,23,syrup,23,tear
21516,7:38:19,2,226,P82,666,session1different,session1,different,3,98,APblock1,unrelated,53,1,586,586,586,6,yours,6,negative
21516,7:38:19,2,226,P82,666,session1different,session1,different,3,103,APblock1,unrelated,53,1,613,613,613,2,aunt,2,south
21516,7:38:19,2,226,P82,666,session1different,session1,different,3,110,APblock1,unrelated,53,1,567,567,567,5,dog,5,answer
21516,7:38:19,2,226,P82,666,session1different,session1,different,3,116,APblock1,unrelated,53,1,551,551,551,15,spoon,15,below
21516,7:38:19,2,226,P82,666,session1different,session1,different,3,121,APblock1,unrelated,53,1,529,529,529,26,few,26,exact
21516,6:41:28,3,230,P83,788,session1different,session1,different,3,3,APblock1,related,53,1,567,567,567,17,last,17,first
21516,6:41:28,3,230,P83,788,session1different,session1,different,3,12,APblock1,related,53,1,402,402,402,18,son,18,daughter
21516,6:41:28,3,230,P83,788,session1different,session1,different,3,20,APblock1,related,53,1,405,405,405,7,white,7,black
21516,6:41:28,3,230,P83,788,session1different,session1,different,3,24,APblock1,related,53,1,414,414,414,3,low,3,high
21516,6:41:28,3,230,P83,788,session1different,session1,different,3,26,APblock1,related,53,1,405,405,405,6,shove,6,push
21516,6:41:28,3,230,P83,788,session1different,session1,different,3,34,APblock1,related,53,1,391,391,391,4,salt,4,pepper
21516,6:41:28,3,230,P83,788,session1different,session1,different,3,53,APblock1,related,53,1,391,391,391,19,dime,19,nickel
21516,6:41:28,3,230,P83,788,session1different,session1,different,3,74,APblock1,related,53,1,371,371,371,21,run,21,walk
21516,6:41:28,3,230,P83,788,session1different,session1,different,3,75,APblock1,related,53,1,441,441,441,12,fright,12,scare
21516,6:41:28,3,230,P83,788,session1different,session1,different,3,86,APblock1,related,53,1,489,489,489,14,cob,14,corn
21516,6:41:28,3,230,P83,788,session1different,session1,different,3,91,APblock1,related,53,1,321,321,321,13,tall,13,short
21516,6:41:28,3,230,P83,788,session1different,session1,different,3,98,APblock1,related,53,1,405,405,405,27,house,27,home
21516,6:41:28,3,230,P83,788,session1different,session1,different,3,100,APblock1,related,53,1,349,349,349,5,sad,5,happy
21516,6:41:28,3,230,P83,788,session1different,session1,different,3,109,APblock1,related,53,1,392,392,392,1,husband,1,wife
21516,6:41:28,3,230,P83,788,session1different,session1,different,3,111,APblock1,related,53,1,443,443,443,11,itch,11,scratch
21516,6:41:28,3,230,P83,788,session1different,session1,different,3,5,APblock1,unrelated,53,1,469,469,469,12,thunder,12,square
21516,6:41:28,3,230,P83,788,session1different,session1,different,3,15,APblock1,unrelated,53,1,449,449,449,28,follow,28,present
21516,6:41:28,3,230,P83,788,session1different,session1,different,3,27,APblock1,unrelated,53,1,529,529,529,16,tomorrow,16,cold
21516,6:41:28,3,230,P83,788,session1different,session1,different,3,28,APblock1,unrelated,53,1,400,400,400,11,circle,11,gold
21516,6:41:28,3,230,P83,788,session1different,session1,different,3,41,APblock1,unrelated,53,1,394,394,394,15,touch,15,ketchup
21516,6:41:28,3,230,P83,788,session1different,session1,different,3,47,APblock1,unrelated,53,1,503,503,503,13,crocodile,13,lightning
21516,6:41:28,3,230,P83,788,session1different,session1,different,3,54,APblock1,unrelated,53,1,428,428,428,23,sting,23,major
21516,6:41:28,3,230,P83,788,session1different,session1,different,3,63,APblock1,unrelated,53,1,641,641,641,1,king,1,bad
21516,6:41:28,3,230,P83,788,session1different,session1,different,3,76,APblock1,unrelated,53,1,444,444,444,7,hot,7,bottom
21516,6:41:28,3,230,P83,788,session1different,session1,different,3,80,APblock1,unrelated,53,1,383,383,383,21,dry,21,butter
21516,6:41:28,3,230,P83,788,session1different,session1,different,3,85,APblock1,unrelated,53,1,420,420,420,29,desire,29,lead
21516,6:41:28,3,230,P83,788,session1different,session1,different,3,97,APblock1,unrelated,53,1,378,378,378,25,mad,25,sweep
21516,6:41:28,3,230,P83,788,session1different,session1,different,3,103,APblock1,unrelated,53,1,7199,7199,,18,loose,18,feel
21516,6:41:28,3,230,P83,788,session1different,session1,different,3,105,APblock1,unrelated,53,1,376,376,376,3,before,3,nail
21516,6:41:28,3,230,P83,788,session1different,session1,different,3,112,APblock1,unrelated,53,1,460,460,460,27,gift,27,disappear
21516,9:12:01,3,254,P95,485,session1different,session1,different,3,8,APblock1,related,53,1,683,683,683,17,last,17,first
21516,9:12:01,3,254,P95,485,session1different,session1,different,3,10,APblock1,related,53,1,639,639,639,13,tall,13,short
21516,9:12:01,3,254,P95,485,session1different,session1,different,3,26,APblock1,related,53,1,565,565,565,30,stone,30,rock
21516,9:12:01,3,254,P95,485,session1different,session1,different,3,37,APblock1,related,53,1,728,728,728,20,clock,20,time
21516,9:12:01,3,254,P95,485,session1different,session1,different,3,49,APblock1,related,53,1,658,658,658,26,gum,26,chew
21516,9:12:01,3,254,P95,485,session1different,session1,different,3,50,APblock1,related,53,1,691,691,691,19,dime,19,nickel
21516,9:12:01,3,254,P95,485,session1different,session1,different,3,63,APblock1,related,53,1,603,603,603,18,son,18,daughter
21516,9:12:01,3,254,P95,485,session1different,session1,different,3,71,APblock1,related,53,1,575,575,575,4,salt,4,pepper
21516,9:12:01,3,254,P95,485,session1different,session1,different,3,75,APblock1,related,53,1,630,630,630,15,weak,15,strong
21516,9:12:01,3,254,P95,485,session1different,session1,different,3,79,APblock1,related,53,1,578,578,578,22,lend,22,borrow
21516,9:12:01,3,254,P95,485,session1different,session1,different,3,83,APblock1,related,53,1,633,633,633,16,dusk,16,dawn
21516,9:12:01,3,254,P95,485,session1different,session1,different,3,86,APblock1,related,53,1,601,601,601,1,husband,1,wife
21516,9:12:01,3,254,P95,485,session1different,session1,different,3,92,APblock1,related,53,1,536,536,536,3,low,3,high
21516,9:12:01,3,254,P95,485,session1different,session1,different,3,95,APblock1,related,53,1,527,527,527,21,run,21,walk
21516,9:12:01,3,254,P95,485,session1different,session1,different,3,113,APblock1,related,53,1,509,509,509,2,day,2,night
21516,9:12:01,3,254,P95,485,session1different,session1,different,3,1,APblock1,unrelated,53,1,669,669,669,10,silver,10,close
21516,9:12:01,3,254,P95,485,session1different,session1,different,3,3,APblock1,unrelated,53,1,634,634,634,21,dry,21,butter
21516,9:12:01,3,254,P95,485,session1different,session1,different,3,4,APblock1,unrelated,53,1,924,924,924,30,margarine,30,want
21516,9:12:01,3,254,P95,485,session1different,session1,different,3,7,APblock1,unrelated,53,1,783,783,783,2,hammer,2,queen
21516,9:12:01,3,254,P95,485,session1different,session1,different,3,16,APblock1,unrelated,53,1,801,801,801,27,gift,27,disappear
21516,9:12:01,3,254,P95,485,session1different,session1,different,3,29,APblock1,unrelated,53,1,652,652,652,20,good,20,lemon
21516,9:12:01,3,254,P95,485,session1different,session1,different,3,30,APblock1,unrelated,53,1,581,581,581,15,touch,15,ketchup
21516,9:12:01,3,254,P95,485,session1different,session1,different,3,36,APblock1,unrelated,53,1,838,838,838,12,thunder,12,square
21516,9:12:01,3,254,P95,485,session1different,session1,different,3,54,APblock1,unrelated,53,1,723,723,723,3,before,3,nail
21516,9:12:01,3,254,P95,485,session1different,session1,different,3,76,APblock1,unrelated,53,1,688,688,688,14,mustard,14,alligator
21516,9:12:01,3,254,P95,485,session1different,session1,different,3,88,APblock1,unrelated,53,1,668,668,668,18,loose,18,feel
21516,9:12:01,3,254,P95,485,session1different,session1,different,3,99,APblock1,unrelated,53,1,697,697,697,24,broom,24,bee
21516,9:12:01,3,254,P95,485,session1different,session1,different,3,110,APblock1,unrelated,53,1,570,570,570,16,tomorrow,16,cold
21516,9:12:01,3,254,P95,485,session1different,session1,different,3,116,APblock1,unrelated,53,1,579,579,579,1,king,1,bad
21516,9:12:01,3,254,P95,485,session1different,session1,different,3,118,APblock1,unrelated,53,1,583,583,583,28,follow,28,present
21516,10:12:24,2,256,P96,488,session1different,session1,different,3,9,APblock1,related,53,1,522,522,522,12,buyer,12,seller
21516,10:12:24,2,256,P96,488,session1different,session1,different,3,10,APblock1,related,53,1,514,514,514,11,stupid,11,dumb
21516,10:12:24,2,256,P96,488,session1different,session1,different,3,16,APblock1,related,53,1,462,462,462,14,hard,14,soft
21516,10:12:24,2,256,P96,488,session1different,session1,different,3,29,APblock1,related,53,1,472,472,472,1,found,1,lost
21516,10:12:24,2,256,P96,488,session1different,session1,different,3,35,APblock1,related,53,1,565,565,565,24,arrow,24,bow
21516,10:12:24,2,256,P96,488,session1different,session1,different,3,52,APblock1,related,53,1,541,541,541,27,exam,27,test
21516,10:12:24,2,256,P96,488,session1different,session1,different,3,56,APblock1,related,53,1,425,425,425,17,near,17,far
21516,10:12:24,2,256,P96,488,session1different,session1,different,3,66,APblock1,related,53,1,647,647,647,4,subtract,4,add
21516,10:12:24,2,256,P96,488,session1different,session1,different,3,74,APblock1,related,53,1,597,597,597,5,brother,5,sister
21516,10:12:24,2,256,P96,488,session1different,session1,different,3,78,APblock1,related,53,1,499,499,499,23,enter,23,exit
21516,10:12:24,2,256,P96,488,session1different,session1,different,3,79,APblock1,related,53,1,498,498,498,9,rich,9,poor
21516,10:12:24,2,256,P96,488,session1different,session1,different,3,82,APblock1,related,53,1,457,457,457,20,trash,20,garbage
21516,10:12:24,2,256,P96,488,session1different,session1,different,3,88,APblock1,related,53,1,476,476,476,21,awake,21,asleep
21516,10:12:24,2,256,P96,488,session1different,session1,different,3,107,APblock1,related,53,1,630,630,630,10,thread,10,needle
21516,10:12:24,2,256,P96,488,session1different,session1,different,3,115,APblock1,related,53,1,633,633,633,15,sand,15,beach
21516,10:12:24,2,256,P96,488,session1different,session1,different,3,17,APblock1,unrelated,53,1,746,746,746,13,pain,13,outside
21516,10:12:24,2,256,P96,488,session1different,session1,different,3,31,APblock1,unrelated,53,1,523,523,523,18,same,18,remember
21516,10:12:24,2,256,P96,488,session1different,session1,different,3,45,APblock1,unrelated,53,1,523,523,523,8,arm,8,cat
21516,10:12:24,2,256,P96,488,session1different,session1,different,3,53,APblock1,unrelated,53,1,1097,1097,,20,table,20,late
21516,10:12:24,2,256,P96,488,session1different,session1,different,3,58,APblock1,unrelated,53,1,471,471,471,28,innocent,28,take
21516,10:12:24,2,256,P96,488,session1different,session1,different,3,61,APblock1,unrelated,53,1,395,395,395,10,niece,10,slow
21516,10:12:24,2,256,P96,488,session1different,session1,different,3,62,APblock1,unrelated,53,1,419,419,419,30,east,30,tea
21516,10:12:24,2,256,P96,488,session1different,session1,different,3,67,APblock1,unrelated,53,1,653,653,653,25,precise,25,spider
21516,10:12:24,2,256,P96,488,session1different,session1,different,3,75,APblock1,unrelated,53,1,495,495,495,15,spoon,15,below
21516,10:12:24,2,256,P96,488,session1different,session1,different,3,83,APblock1,unrelated,53,1,465,465,465,12,inside,12,sick
21516,10:12:24,2,256,P96,488,session1different,session1,different,3,86,APblock1,unrelated,53,1,427,427,427,14,north,14,hurt
21516,10:12:24,2,256,P96,488,session1different,session1,different,3,94,APblock1,unrelated,44,0,511,,,5,dog,5,answer
21516,10:12:24,2,256,P96,488,session1different,session1,different,3,95,APblock1,unrelated,53,1,759,759,759,16,best,16,fork
21516,10:12:24,2,256,P96,488,session1different,session1,different,3,117,APblock1,unrelated,53,1,733,733,733,4,positive,4,mother
21516,10:12:24,2,256,P96,488,session1different,session1,different,3,119,APblock1,unrelated,53,1,507,507,507,7,above,7,mine
21516,9:31:15,1,271,P100,909,session1different,session1,different,3,5,APblock1,related,53,1,557,557,557,2,north,2,south
21516,9:31:15,1,271,P100,909,session1different,session1,different,3,9,APblock1,related,44,0,703,,,7,yours,7,mine
21516,9:31:15,1,271,P100,909,session1different,session1,different,3,15,APblock1,related,53,1,494,494,494,21,table,21,chair
21516,9:31:15,1,271,P100,909,session1different,session1,different,3,20,APblock1,related,53,1,424,424,424,13,inside,13,outside
21516,9:31:15,1,271,P100,909,session1different,session1,different,3,21,APblock1,related,53,1,324,324,324,1,east,1,west
21516,9:31:15,1,271,P100,909,session1different,session1,different,3,22,APblock1,related,53,1,477,477,477,22,alive,22,dead
21516,9:31:15,1,271,P100,909,session1different,session1,different,3,36,APblock1,related,53,1,451,451,451,9,arm,9,leg
21516,9:31:15,1,271,P100,909,session1different,session1,different,3,39,APblock1,related,53,1,388,388,388,3,aunt,3,uncle
21516,9:31:15,1,271,P100,909,session1different,session1,different,3,42,APblock1,related,53,1,459,459,459,20,early,20,late
21516,9:31:15,1,271,P100,909,session1different,session1,different,3,54,APblock1,related,53,1,1493,1493,,23,rip,23,tear
21516,9:31:15,1,271,P100,909,session1different,session1,different,3,60,APblock1,related,53,1,333,333,333,30,coffee,30,tea
21516,9:31:15,1,271,P100,909,session1different,session1,different,3,86,APblock1,related,53,1,435,435,435,27,few,27,many
21516,9:31:15,1,271,P100,909,session1different,session1,different,3,94,APblock1,related,53,1,350,350,350,8,dog,8,cat
21516,9:31:15,1,271,P100,909,session1different,session1,different,3,98,APblock1,related,53,1,347,347,347,10,fast,10,slow
21516,9:31:15,1,271,P100,909,session1different,session1,different,3,114,APblock1,related,53,1,395,395,395,24,syrup,24,pancakes
21516,9:31:15,1,271,P100,909,session1different,session1,different,3,12,APblock1,unrelated,53,1,403,403,403,13,hard,13,dinner
21516,9:31:15,1,271,P100,909,session1different,session1,different,3,14,APblock1,unrelated,53,1,513,513,513,19,trash,19,picture
21516,9:31:15,1,271,P100,909,session1different,session1,different,3,25,APblock1,unrelated,53,1,755,755,755,28,win,28,sit
21516,9:31:15,1,271,P100,909,session1different,session1,different,3,32,APblock1,unrelated,53,1,453,453,453,6,front,6,right
21516,9:31:15,1,271,P100,909,session1different,session1,different,3,40,APblock1,unrelated,53,1,599,599,599,3,subtract,3,boy
21516,9:31:15,1,271,P100,909,session1different,session1,different,3,47,APblock1,unrelated,53,1,610,610,610,1,bride,1,lost
21516,9:31:15,1,271,P100,909,session1different,session1,different,3,48,APblock1,unrelated,53,1,864,864,864,5,left,5,sister
21516,9:31:15,1,271,P100,909,session1different,session1,different,3,50,APblock1,unrelated,53,1,424,424,424,18,frame,18,under
21516,9:31:15,1,271,P100,909,session1different,session1,different,3,64,APblock1,unrelated,53,1,337,337,337,27,stand,27,test
21516,9:31:15,1,271,P100,909,session1different,session1,different,3,73,APblock1,unrelated,53,1,389,389,389,11,buyer,11,dumb
21516,9:31:15,1,271,P100,909,session1different,session1,different,3,79,APblock1,unrelated,53,1,423,423,423,7,new,7,back
21516,9:31:15,1,271,P100,909,session1different,session1,different,3,88,APblock1,unrelated,53,1,365,365,365,10,stupid,10,needle
21516,9:31:15,1,271,P100,909,session1different,session1,different,3,97,APblock1,unrelated,53,1,372,372,372,30,found,30,food
21516,9:31:15,1,271,P100,909,session1different,session1,different,3,101,APblock1,unrelated,53,1,539,539,539,4,brother,4,add
21516,9:31:15,1,271,P100,909,session1different,session1,different,3,113,APblock1,unrelated,53,1,736,736,736,2,supper,2,groom
21516,9:32:31,4,272,P101,479,session1different,session1,different,3,2,APblock1,related,53,1,749,749,749,2,king,2,queen
21516,9:32:31,4,272,P101,479,session1different,session1,different,3,4,APblock1,related,53,1,553,553,553,19,loose,19,tight
21516,9:32:31,4,272,P101,479,session1different,session1,different,3,8,APblock1,related,53,1,511,511,511,30,desire,30,want
21516,9:32:31,4,272,P101,479,session1different,session1,different,3,20,APblock1,related,53,1,743,743,743,14,crocodile,14,alligator
21516,9:32:31,4,272,P101,479,session1different,session1,different,3,32,APblock1,related,53,1,701,701,701,17,tomorrow,17,today
21516,9:32:31,4,272,P101,479,session1different,session1,different,3,41,APblock1,related,53,1,757,757,757,11,silver,11,gold
21516,9:32:31,4,272,P101,479,session1different,session1,different,3,44,APblock1,related,53,1,520,520,520,20,lime,20,lemon
21516,9:32:31,4,272,P101,479,session1different,session1,different,3,61,APblock1,related,53,1,610,610,610,15,mustard,15,ketchup
21516,9:32:31,4,272,P101,479,session1different,session1,different,3,79,APblock1,related,53,1,732,732,732,22,dry,22,wet
21516,9:32:31,4,272,P101,479,session1different,session1,different,3,91,APblock1,related,44,0,447,,,12,circle,12,square
21516,9:32:31,4,272,P101,479,session1different,session1,different,3,93,APblock1,related,53,1,785,785,785,10,open,10,close
21516,9:32:31,4,272,P101,479,session1different,session1,different,3,95,APblock1,related,44,0,595,,,8,empty,8,full
21516,9:32:31,4,272,P101,479,session1different,session1,different,3,97,APblock1,related,53,1,552,552,552,9,yell,9,scream
21516,9:32:31,4,272,P101,479,session1different,session1,different,3,100,APblock1,related,53,1,587,587,587,26,mad,26,angry
21516,9:32:31,4,272,P101,479,session1different,session1,different,3,108,APblock1,related,53,1,561,561,561,4,before,4,after
21516,9:32:31,4,272,P101,479,session1different,session1,different,3,7,APblock1,unrelated,53,1,639,639,639,13,cob,13,short
21516,9:32:31,4,272,P101,479,session1different,session1,different,3,14,APblock1,unrelated,53,1,613,613,613,16,itch,16,dawn
21516,9:32:31,4,272,P101,479,session1different,session1,different,3,23,APblock1,unrelated,53,1,475,475,475,22,saucer,22,borrow
21516,9:32:31,4,272,P101,479,session1different,session1,different,3,43,APblock1,unrelated,53,1,532,532,532,6,white,6,push
21516,9:32:31,4,272,P101,479,session1different,session1,different,3,50,APblock1,unrelated,53,1,567,567,567,11,fright,11,scratch
21516,9:32:31,4,272,P101,479,session1different,session1,different,3,51,APblock1,unrelated,53,1,498,498,498,4,sad,4,pepper
21516,9:32:31,4,272,P101,479,session1different,session1,different,3,52,APblock1,unrelated,53,1,473,473,473,18,dime,18,daughter
21516,9:32:31,4,272,P101,479,session1different,session1,different,3,56,APblock1,unrelated,53,1,607,607,607,21,lend,21,walk
21516,9:32:31,4,272,P101,479,session1different,session1,different,3,57,APblock1,unrelated,53,1,517,517,517,10,last,10,dryer
21516,9:32:31,4,272,P101,479,session1different,session1,different,3,77,APblock1,unrelated,53,1,683,683,683,9,washer,9,volcano
21516,9:32:31,4,272,P101,479,session1different,session1,different,3,83,APblock1,unrelated,53,1,530,530,530,14,weak,14,corn
21516,9:32:31,4,272,P101,479,session1different,session1,different,3,86,APblock1,unrelated,53,1,570,570,570,20,son,20,time
21516,9:32:31,4,272,P101,479,session1different,session1,different,3,89,APblock1,unrelated,53,1,560,560,560,17,toad,17,first
21516,9:32:31,4,272,P101,479,session1different,session1,different,3,98,APblock1,unrelated,53,1,466,466,466,25,gum,25,cab
21516,9:32:31,4,272,P101,479,session1different,session1,different,3,103,APblock1,unrelated,53,1,469,469,469,15,dusk,15,strong
21516,9:43:36,3,278,P105,699,session1different,session1,different,3,3,APblock1,related,53,1,497,497,497,5,sad,5,happy
21516,9:43:36,3,278,P105,699,session1different,session1,different,3,19,APblock1,related,53,1,418,418,418,21,run,21,walk
21516,9:43:36,3,278,P105,699,session1different,session1,different,3,20,APblock1,related,53,1,379,379,379,23,saucer,23,cup
21516,9:43:36,3,278,P105,699,session1different,session1,different,3,22,APblock1,related,53,1,432,432,432,20,clock,20,time
21516,9:43:36,3,278,P105,699,session1different,session1,different,3,35,APblock1,related,53,1,338,338,338,10,washer,10,dryer
21516,9:43:36,3,278,P105,699,session1different,session1,different,3,43,APblock1,related,53,1,629,629,629,17,last,17,first
21516,9:43:36,3,278,P105,699,session1different,session1,different,3,52,APblock1,related,53,1,391,391,391,1,husband,1,wife
21516,9:43:36,3,278,P105,699,session1different,session1,different,3,57,APblock1,related,53,1,613,613,613,29,cash,29,money
21516,9:43:36,3,278,P105,699,session1different,session1,different,3,62,APblock1,related,53,1,442,442,442,25,taxi,25,cab
21516,9:43:36,3,278,P105,699,session1different,session1,different,3,64,APblock1,related,53,1,435,435,435,22,lend,22,borrow
21516,9:43:36,3,278,P105,699,session1different,session1,different,3,68,APblock1,related,53,1,1044,1044,1044,27,house,27,home
21516,9:43:36,3,278,P105,699,session1different,session1,different,3,86,APblock1,related,53,1,375,375,375,30,stone,30,rock
21516,9:43:36,3,278,P105,699,session1different,session1,different,3,91,APblock1,related,53,1,364,364,364,26,gum,26,chew
21516,9:43:36,3,278,P105,699,session1different,session1,different,3,107,APblock1,related,53,1,466,466,466,3,low,3,high
21516,9:43:36,3,278,P105,699,session1different,session1,different,3,111,APblock1,related,53,1,396,396,396,13,tall,13,short
21516,9:43:36,3,278,P105,699,session1different,session1,different,3,10,APblock1,unrelated,53,1,391,391,391,21,dry,21,butter
21516,9:43:36,3,278,P105,699,session1different,session1,different,3,16,APblock1,unrelated,53,1,439,439,439,4,more,4,after
21516,9:43:36,3,278,P105,699,session1different,session1,different,3,41,APblock1,unrelated,53,1,2282,2282,2282,25,mad,25,sweep
21516,9:43:36,3,278,P105,699,session1different,session1,different,3,58,APblock1,unrelated,53,1,704,704,704,8,yell,8,full
21516,9:43:36,3,278,P105,699,session1different,session1,different,3,59,APblock1,unrelated,53,1,492,492,492,20,good,20,lemon
21516,9:43:36,3,278,P105,699,session1different,session1,different,3,61,APblock1,unrelated,53,1,455,455,455,29,desire,29,lead
21516,9:43:36,3,278,P105,699,session1different,session1,different,3,76,APblock1,unrelated,53,1,852,852,852,13,crocodile,13,lightning
21516,9:43:36,3,278,P105,699,session1different,session1,different,3,102,APblock1,unrelated,53,1,385,385,385,28,follow,28,present
21516,9:43:36,3,278,P105,699,session1different,session1,different,3,104,APblock1,unrelated,53,1,344,344,344,17,empty,17,today
21516,9:43:36,3,278,P105,699,session1different,session1,different,3,105,APblock1,unrelated,53,1,370,370,370,9,open,9,scream
21516,9:43:36,3,278,P105,699,session1different,session1,different,3,106,APblock1,unrelated,53,1,504,504,504,26,vanish,26,angry
21516,9:43:36,3,278,P105,699,session1different,session1,different,3,109,APblock1,unrelated,53,1,500,500,500,27,gift,27,disappear
21516,9:43:36,3,278,P105,699,session1different,session1,different,3,110,APblock1,unrelated,53,1,555,555,555,10,silver,10,close
21516,9:43:36,3,278,P105,699,session1different,session1,different,3,115,APblock1,unrelated,53,1,443,443,443,11,circle,11,gold
21516,9:43:36,3,278,P105,699,session1different,session1,different,3,116,APblock1,unrelated,53,1,365,365,365,2,hammer,2,queen
21516,11:18:07,1,298,P111,914,session1different,session1,different,3,4,APblock1,related,53,1,647,647,647,9,arm,9,leg
21516,11:18:07,1,298,P111,914,session1different,session1,different,3,5,APblock1,related,53,1,714,714,714,24,syrup,24,pancakes
21516,11:18:07,1,298,P111,914,session1different,session1,different,3,8,APblock1,related,53,1,872,872,872,13,inside,13,outside
21516,11:18:07,1,298,P111,914,session1different,session1,different,3,25,APblock1,related,53,1,650,650,650,3,aunt,3,uncle
21516,11:18:07,1,298,P111,914,session1different,session1,different,3,33,APblock1,related,53,1,709,709,709,16,spoon,16,fork
21516,11:18:07,1,298,P111,914,session1different,session1,different,3,39,APblock1,related,53,1,1218,1218,1218,26,precise,26,exact
21516,11:18:07,1,298,P111,914,session1different,session1,different,3,59,APblock1,related,53,1,964,964,964,4,father,4,mother
21516,11:18:07,1,298,P111,914,session1different,session1,different,3,62,APblock1,related,53,1,622,622,622,12,ill,12,sick
21516,11:18:07,1,298,P111,914,session1different,session1,different,3,65,APblock1,related,53,1,848,848,848,1,east,1,west
21516,11:18:07,1,298,P111,914,session1different,session1,different,3,72,APblock1,related,53,1,621,621,621,20,early,20,late
21516,11:18:07,1,298,P111,914,session1different,session1,different,3,91,APblock1,related,53,1,759,759,759,17,best,17,worst
21516,11:18:07,1,298,P111,914,session1different,session1,different,3,107,APblock1,related,53,1,672,672,672,10,fast,10,slow
21516,11:18:07,1,298,P111,914,session1different,session1,different,3,111,APblock1,related,53,1,608,608,608,5,question,5,answer
21516,11:18:07,1,298,P111,914,session1different,session1,different,3,113,APblock1,related,53,1,669,669,669,27,few,27,many
21516,11:18:07,1,298,P111,914,session1different,session1,different,3,117,APblock1,related,53,1,879,879,879,22,alive,22,dead
21516,11:18:07,1,298,P111,914,session1different,session1,different,3,3,APblock1,unrelated,53,1,928,928,928,4,brother,4,add
21516,11:18:07,1,298,P111,914,session1different,session1,different,3,7,APblock1,unrelated,53,1,579,579,579,8,rich,8,old
21516,11:18:07,1,298,P111,914,session1different,session1,different,3,9,APblock1,unrelated,53,1,666,666,666,11,buyer,11,dumb
21516,11:18:07,1,298,P111,914,session1different,session1,different,3,10,APblock1,unrelated,53,1,179,179,179,27,stand,27,test
21516,11:18:07,1,298,P111,914,session1different,session1,different,3,15,APblock1,unrelated,53,1,601,601,601,28,win,28,sit
21516,11:18:07,1,298,P111,914,session1different,session1,different,3,20,APblock1,unrelated,53,1,652,652,652,20,awake,20,garbage
21516,11:18:07,1,298,P111,914,session1different,session1,different,3,50,APblock1,unrelated,53,1,565,565,565,10,stupid,10,needle
21516,11:18:07,1,298,P111,914,session1different,session1,different,3,51,APblock1,unrelated,53,1,595,595,595,12,girl,12,seller
21516,11:18:07,1,298,P111,914,session1different,session1,different,3,54,APblock1,unrelated,53,1,948,948,948,7,new,7,back
21516,11:18:07,1,298,P111,914,session1different,session1,different,3,56,APblock1,unrelated,53,1,662,662,662,24,nurse,24,bow
21516,11:18:07,1,298,P111,914,session1different,session1,different,3,58,APblock1,unrelated,53,1,867,867,867,2,supper,2,groom
21516,11:18:07,1,298,P111,914,session1different,session1,different,3,61,APblock1,unrelated,53,1,860,860,860,25,cautious,25,doctor
21516,11:18:07,1,298,P111,914,session1different,session1,different,3,63,APblock1,unrelated,53,1,865,865,865,19,trash,19,picture
21516,11:18:07,1,298,P111,914,session1different,session1,different,3,75,APblock1,unrelated,53,1,667,667,667,26,exam,26,careful
21516,11:18:07,1,298,P111,914,session1different,session1,different,3,116,APblock1,unrelated,53,1,487,487,487,17,over,17,far
21516,11:30:45,1,303,P113,1019,session1different,session1,different,3,2,APblock1,related,53,1,569,569,569,12,ill,12,sick
21516,11:30:45,1,303,P113,1019,session1different,session1,different,3,22,APblock1,related,53,1,665,665,665,3,aunt,3,uncle
21516,11:30:45,1,303,P113,1019,session1different,session1,different,3,41,APblock1,related,53,1,553,553,553,29,innocent,29,guilty
21516,11:30:45,1,303,P113,1019,session1different,session1,different,3,48,APblock1,related,53,1,468,468,468,30,coffee,30,tea
21516,11:30:45,1,303,P113,1019,session1different,session1,different,3,50,APblock1,related,53,1,685,685,685,6,positive,6,negative
21516,11:30:45,1,303,P113,1019,session1different,session1,different,3,52,APblock1,related,53,1,625,625,625,26,precise,26,exact
21516,11:30:45,1,303,P113,1019,session1different,session1,different,3,55,APblock1,related,53,1,661,661,661,14,pain,14,hurt
21516,11:30:45,1,303,P113,1019,session1different,session1,different,3,65,APblock1,related,53,1,575,575,575,17,best,17,worst
21516,11:30:45,1,303,P113,1019,session1different,session1,different,3,71,APblock1,related,53,1,689,689,689,19,same,19,different
21516,11:30:45,1,303,P113,1019,session1different,session1,different,3,75,APblock1,related,53,1,579,579,579,9,arm,9,leg
21516,11:30:45,1,303,P113,1019,session1different,session1,different,3,76,APblock1,related,53,1,619,619,619,5,question,5,answer
21516,11:30:45,1,303,P113,1019,session1different,session1,different,3,83,APblock1,related,53,1,625,625,625,24,syrup,24,pancakes
21516,11:30:45,1,303,P113,1019,session1different,session1,different,3,107,APblock1,related,53,1,852,852,852,10,fast,10,slow
21516,11:30:45,1,303,P113,1019,session1different,session1,different,3,108,APblock1,related,53,1,768,768,768,25,web,25,spider
21516,11:30:45,1,303,P113,1019,session1different,session1,different,3,113,APblock1,related,53,1,718,718,718,13,inside,13,outside
21516,11:30:45,1,303,P113,1019,session1different,session1,different,3,7,APblock1,unrelated,53,1,925,925,925,2,supper,2,groom
21516,11:30:45,1,303,P113,1019,session1different,session1,different,3,10,APblock1,unrelated,53,1,676,676,676,7,new,7,back
21516,11:30:45,1,303,P113,1019,session1different,session1,different,3,13,APblock1,unrelated,53,1,829,829,829,28,win,28,sit
21516,11:30:45,1,303,P113,1019,session1different,session1,different,3,18,APblock1,unrelated,53,1,437,437,437,27,stand,27,test
21516,11:30:45,1,303,P113,1019,session1different,session1,different,3,46,APblock1,unrelated,53,1,617,617,617,10,stupid,10,needle
21516,11:30:45,1,303,P113,1019,session1different,session1,different,3,62,APblock1,unrelated,53,1,647,647,647,25,cautious,25,doctor
21516,11:30:45,1,303,P113,1019,session1different,session1,different,3,67,APblock1,unrelated,53,1,897,897,897,12,girl,12,seller
21516,11:30:45,1,303,P113,1019,session1different,session1,different,3,73,APblock1,unrelated,53,1,655,655,655,22,enter,22,small
21516,11:30:45,1,303,P113,1019,session1different,session1,different,3,82,APblock1,unrelated,53,1,637,637,637,26,exam,26,careful
21516,11:30:45,1,303,P113,1019,session1different,session1,different,3,97,APblock1,unrelated,53,1,614,614,614,18,frame,18,under
21516,11:30:45,1,303,P113,1019,session1different,session1,different,3,99,APblock1,unrelated,53,1,498,498,498,1,bride,1,lost
21516,11:30:45,1,303,P113,1019,session1different,session1,different,3,106,APblock1,unrelated,53,1,739,739,739,5,left,5,sister
21516,11:30:45,1,303,P113,1019,session1different,session1,different,3,111,APblock1,unrelated,53,1,540,540,540,19,trash,19,picture
21516,11:30:45,1,303,P113,1019,session1different,session1,different,3,112,APblock1,unrelated,53,1,668,668,668,8,rich,8,old
21516,11:30:45,1,303,P113,1019,session1different,session1,different,3,117,APblock1,unrelated,53,1,723,723,723,14,sand,14,soft
21516,11:32:08,4,306,P114,567,session1different,session1,different,3,8,APblock1,related,44,0,341,,,25,broom,25,sweep
21516,11:32:08,4,306,P114,567,session1different,session1,different,3,10,APblock1,related,53,1,622,622,622,22,dry,22,wet
21516,11:32:08,4,306,P114,567,session1different,session1,different,3,14,APblock1,related,53,1,405,405,405,11,silver,11,gold
21516,11:32:08,4,306,P114,567,session1different,session1,different,3,17,APblock1,related,44,0,547,,,2,king,2,queen
21516,11:32:08,4,306,P114,567,session1different,session1,different,3,25,APblock1,related,53,1,470,470,470,1,good,1,bad
21516,11:32:08,4,306,P114,567,session1different,session1,different,3,26,APblock1,related,53,1,431,431,431,13,thunder,13,lightning
